Time (s),Gyroscope X (deg/s),Gyroscope Y (deg/s),Gyroscope Z (deg/s),Accelerometer X (g),Accelerometer Y (g),Accelerometer Z (g),Magnetometer X (uT),Magnetometer Y (uT),Magnetometer Z (uT),Barometer (hPa)
0.000000000,93.16264,-44.00557,-1.644026,0.6062564,0.7756698,0.05885521,13.67198,29.51315,-11.33421,890.4867
0.020018101,-118.7358,28.04669,-1.034484,0.3930822,-0.3994924,-0.6887496,15.46189,29.11427,-11.3193,890.4884
0.040035725,110.5233,-35.91445,-0.3639875,0.4436858,0.5210052,-0.7461947,15.46189,29.11427,-11.3193,890.4884
0.060052872,128.6843,-8.983443,-9.141395,0.555195,-0.3129098,-0.2039483,15.46189,29.11427,-11.3193,890.4902
0.080070496,44.28196,49.01271,-0.3639875,-0.8274515,-0.4171062,-2.666567,12.90012,30.61202,-7.108655,890.4902
0.100088596,-44.24504,14.75837,1.891319,-0.6293483,-1.191032,-2.654506,12.90012,30.61202,-7.108655,890.492
0.120106220,-193.5343,36.37404,7.011473,0.1005444,0.2485411,-1.767887,18.71946,30.52974,-12.53037,890.492
0.140123844,-20.60501,35.37003,-1.644026,-1.070166,0.3942889,-1.761019,18.71946,30.52974,-12.53037,890.4937
0.160141945,46.80602,115.4543,-3.106927,1.082411,-0.2509152,-1.363739,18.71946,30.52974,-12.53037,890.4937
0.180159569,31.23069,-50.67926,-2.009751,0.6804364,0.03673327,-0.1427025,8.198189,32.83699,-7.144661,890.4955
0.200177193,57.33322,-16.54302,-8.897577,0.1131909,-0.5412714,-1.975365,8.198189,32.83699,-7.144661,890.4955
0.220195293,-58.09662,175.2813,0.4893716,1.685253,-0.2691564,-1.106994,19.1728,24.79153,-18.13961,890.5006
0.240212917,-66.83852,1934.538,26.1511,15.59564,-4.998732,-15.81227,19.1728,24.79153,-18.13961,890.5006
0.260230541,-236.3819,1934.538,123.5559,0.2705122,-0.2918184,-15.81935,19.1728,24.79153,-18.13961,890.4955
0.280248642,44.95914,-0.8923291,-12.79865,0.3929666,1.817859,1.54469,38.58216,19.88625,-57.28888,890.4955
0.300266266,-689.421,-347.9834,23.71293,-1.318548,4.41488,7.45939,38.58216,19.88625,-57.28888,890.4937
0.320283890,-162.9377,357.8925,27.55304,-0.3065676,-1.217098,-2.389971,-20.99824,24.75992,-15.88611,890.4937
0.340301991,-419.4074,-43.41497,16.09365,2.683509,-1.653968,0.9633769,-20.99824,24.75992,-15.88611,890.4937
0.360319138,3.958462,132.6996,27.97972,-1.218863,-0.9749098,-3.5811,-20.99824,24.75992,-15.88611,890.4937
0.380336762,262.0288,1.233803,-15.35872,-0.8553534,0.9329197,1.794974,-23.51227,8.487091,10.9174,890.497
0.400354385,-52.98693,96.55539,18.40991,0.732162,-3.41382,-2.561571,-23.51227,8.487091,10.9174,890.497
0.420372486,167.8381,8.498088,-2.619294,0.123524,-0.8520964,-0.1469063,-21.45006,16.02152,15.18557,890.497
0.440390110,-356.1827,-22.62613,3.415174,1.218427,-1.374352,2.653637,-21.45006,16.02152,15.18557,890.497
0.460408211,23.90474,-187.4604,-4.935554,-0.7810672,-1.127937,-2.111419,-6.428145,38.4088,11.58583,890.4988
0.480425835,340.8289,-83.6343,-28.64674,-0.7894935,-0.1705547,-0.2111591,-6.428145,38.4088,11.58583,890.4988
0.500443459,-4.721862,313.9524,26.63873,-4.175903,-2.157999,-3.514758,-6.428145,38.4088,11.58583,890.4988
0.520461559,385.708,91.88971,13.04594,1.161993,0.2582912,0.4180931,-21.12213,18.51128,18.61611,890.4988
0.540479183,-401.9852,-68.98762,9.57155,1.757322,0.7868502,7.498496,-21.12213,18.51128,18.61611,890.5006
0.560496807,300.9363,-43.41497,-12.98151,-2.074807,-2.266774,-5.031636,-11.46962,29.49396,14.06696,890.5006
0.580514908,460.5681,-49.67525,5.304755,-1.00829,0.8903355,-0.2904745,-11.46962,29.49396,14.06696,890.5006
0.600532532,-182.884,-170.7467,-0.242079,-0.5102221,1.314352,3.954825,-11.46962,29.49396,14.06696,890.5006
0.620550156,388.5399,-88.47716,-9.872846,-0.02332511,-0.7873657,-1.252176,-17.23488,25.24053,16.98956,890.5006
0.640567303,176.0874,213.3155,-0.1811248,0.842784,1.448014,0.4303683,-17.23488,25.24053,16.98956,890.5006
0.660585404,24.52036,1933.179,69.73337,9.785534,-0.7387141,-15.79445,-4.92521,34.80994,1.700021,890.4973
0.680603028,-248.6944,1934.538,89.6654,2.12916,0.9553966,-15.80344,-4.92521,34.80994,1.700021,890.4973
0.700620651,217.0881,-18.19668,-33.40117,2.235631,0.2115255,3.50175,-4.92521,34.80994,1.700021,890.4935
0.720638752,-205.9084,-37.56811,8.169603,0.9061727,0.5127783,-0.4274668,13.25572,10.90368,-39.19067,890.4935
0.740656376,80.85012,-4.554001,-1.765934,-0.2492653,0.5458506,-0.4412944,13.25572,10.90368,-39.19067,890.4902
0.760674000,135.7024,-54.45905,-9.141395,-0.2358902,0.09815747,-0.2691084,0.3961379,16.12179,-16.15367,890.4902
0.780692100,-100.4517,17.8885,9.876321,0.3164881,0.7524875,-0.8113296,0.3961379,16.12179,-16.15367,890.4935
0.800709724,-31.8094,-47.07664,-0.9735296,0.2370344,-0.3658046,-1.015041,0.3961379,16.12179,-16.15367,890.4935
0.820727825,-192.4262,108.9578,7.864832,0.4560969,-0.0003607348,-2.194502,13.6812,28.78041,-11.77149,890.4935
0.840745449,270.3397,-150.2531,-14.26155,0.7734188,0.6926786,0.5287401,13.6812,28.78041,-11.77149,890.4935
0.860763073,-62.09819,-11.99546,-5.60605,-0.1997993,-0.529688,0.2509453,16.57418,28.72742,-11.31041,890.4902
0.880781174,-5.460614,24.79843,0.1236463,-0.342448,0.5012814,-1.384982,16.57418,28.72742,-11.31041,890.4902
0.900798798,-10.63187,74.34912,-1.461163,-0.05903251,-0.6915901,-2.128825,16.57418,28.72742,-11.31041,890.4902
0.920815945,37.01757,42.10279,-3.350744,-0.650315,-1.289348,-3.041391,13.27548,30.23991,-7.541692,890.4902
0.940833569,10.97659,-32.90243,1.342731,-1.031422,0.01774857,-1.184284,13.27548,30.23991,-7.541692,890.4902
0.960851669,-194.3346,52.79251,5.182847,-0.5026236,0.4029919,-2.26168,18.34756,30.53467,-12.09829,890.492
0.980869293,24.4588,-10.51898,-5.667004,-1.030498,-0.663183,-2.72429,18.34756,30.53467,-12.09829,890.492
1.000886917,128.8074,208.6498,2.500861,-0.4440254,0.4087994,-1.805396,18.34756,30.53467,-12.09829,890.4937
1.020905018,61.6426,9.85645,-5.60605,0.7632492,0.1393559,-0.3976541,9.252344,32.08404,-7.137272,890.4937
1.040922642,-25.59158,0.7613293,0.4284174,0.8341956,-0.8710357,-2.224732,9.252344,32.08404,-7.137272,890.4937
1.060940266,12.70035,311.9444,12.86308,1.964444,-0.04845127,-1.775372,18.45046,24.44698,-20.69712,890.4937
1.080958366,126.0371,1934.538,63.69889,11.97852,1.273049,-15.52433,18.45046,24.44698,-20.69712,890.492
1.100975990,-161.9527,1934.538,120.6911,-2.457551,0.06801005,-15.82457,18.45046,24.44698,-20.69712,890.492
1.120993614,-16.78813,70.51028,-15.90731,0.9027933,1.907231,2.683247,44.25926,17.17712,-31.18432,890.4849
1.141011715,-814.5161,-242.6808,48.39939,2.811387,-0.3747391,3.512153,44.25926,17.17712,-31.18432,890.4849
1.161029339,-74.47227,-6.562015,13.04594,-3.197997,-1.041017,-2.159995,-10.17558,20.17984,-4.357264,890.4849
1.181046486,-311.6114,110.5524,15.30125,1.174147,-1.443577,-1.203768,-10.17558,20.17984,-4.357264,890.4849
1.201064110,142.8437,-51.32891,24.38342,-0.1979113,0.983142,0.04414601,-10.17558,20.17984,-4.357264,890.4816
1.221082211,254.5182,-4.317764,-25.35522,-0.878182,1.114969,0.7103732,-25.02131,11.75678,10.91271,890.4816
1.241099834,62.87386,189.2193,-4.569829,0.4215758,-0.3712216,2.075948,-25.02131,11.75678,10.91271,890.4816
1.261117935,-0.7818573,12.69129,7.864832,0.2562532,-1.018111,0.154547,-22.21865,18.17004,16.92604,890.4816
1.281135559,-258.6675,-119.0108,21.21381,2.673708,-2.494868,3.256006,-22.21865,18.17004,16.92604,890.4816
1.301153183,-48.36973,-32.31184,-2.680248,-2.114899,0.9425711,-0.6933864,-7.143691,35.91282,11.57272,890.4816
1.321171284,79.742,-117.1209,-27.30575,-1.439886,0.6911645,3.197076,-7.143691,35.91282,11.57272,890.4816
1.341188908,202.2516,146.4604,-0.1811248,-0.4465894,-0.7776131,-1.675609,-7.143691,35.91282,11.57272,890.4816
1.361206532,284.4376,5.427008,9.754413,-0.2822951,1.783248,3.059352,-21.13999,19.91557,19.4905,890.4816
1.381224632,31.23069,331.552,12.07067,-0.3535848,-0.7933366,0.2941954,-21.13999,19.91557,19.4905,890.4816
1.401242256,292.8716,61.00174,-2.619294,-2.218195,-1.384316,-3.022251,-12.50645,28.41099,14.05479,890.4834
1.421259403,633.559,49.42613,-1.765934,-0.3716236,1.013197,1.026043,-12.50645,28.41099,14.05479,890.4834
1.441277027,-14.81813,30.70436,8.108648,0.3716432,-2.529792,0.3810329,-12.50645,28.41099,14.05479,890.4851
1.461295128,274.8954,-61.90051,-2.985019,0.5760924,-0.5941111,0.516524,-16.49815,24.54797,18.67364,890.4851
1.481312752,157.6187,309.7001,10.36395,1.481572,1.682338,1.524617,-16.49815,24.54797,18.67364,890.4851
1.501330376,-42.64441,1934.538,58.33492,12.40733,0.6076307,-15.60537,-5.629574,31.58261,0.8764715,890.4851
1.521348477,-137.8817,1934.538,113.4985,-4.0948,-0.03465755,-15.83034,-5.629574,31.58261,0.8764715,890.4798
1.541366100,137.3646,222.4106,-12.18911,-0.6797867,1.329102,0.1745541,-5.629574,31.58261,0.8764715,890.4798
1.561383724,-183.7458,-0.4789145,8.779145,0.1842491,-0.07532568,-1.225848,6.648579,16.078,-33.63791,890.4798
1.581401825,-45.7841,68.1479,1.76941,-0.05027706,0.2390107,-0.6886593,6.648579,16.078,-33.63791,890.4798
1.601419449,95.25577,-33.90644,-6.398455,0.3415664,0.1501293,-0.08867324,1.446632,22.52947,-16.56244,890.4816
1.621437550,-103.4067,-18.6101,6.219068,0.06143008,0.247551,-0.9244955,1.446632,22.52947,-16.56244,890.4816
1.641455174,-105.8692,29.93659,5.609526,0.1971035,-0.0624986,-2.190964,1.446632,22.52947,-16.56244,890.4834
1.661472321,-110.1786,171.6787,6.462885,-0.04150131,-1.011664,-3.504916,14.04388,29.50822,-11.76629,890.4834
1.681489945,213.2713,2.769343,-9.019486,0.1007311,0.3167233,0.1018463,14.04388,29.50822,-11.76629,890.4851
1.701508045,-77.55041,-11.10958,1.76941,0.366738,-0.3054328,-0.3827218,16.56955,29.46342,-11.74386,890.4851
1.721525669,25.81318,129.6286,6.340977,0.9623691,0.9460889,-0.731936,16.56955,29.46342,-11.74386,890.4869
1.761561394,176.3337,-63.79041,1.098914,1.105607,0.3944219,-0.3592454,13.27665,29.8711,-7.107285,890.4887
1.781579018,42.68133,-143.7566,0.001737846,0.4560117,0.9378775,0.9390142,13.27665,29.8711,-7.107285,890.4887
1.801596641,-204.7387,20.25087,1.586547,-0.3511916,0.03644829,-1.925597,18.33578,31.57363,-11.72241,890.4923
1.821614742,44.77446,64.07281,3.476128,-1.122742,-0.432116,-2.172387,18.33578,31.57363,-11.72241,890.4923
1.841632366,-28.23877,153.3704,3.476128,-0.3569654,0.1177718,-2.477623,18.33578,31.57363,-11.72241,890.494
1.861649990,85.52888,62.24198,-4.874599,0.608196,0.5643646,-0.6062043,9.262737,30.98249,-7.140141,890.494
1.881668091,45.63633,-84.16584,-6.76418,0.08386552,-0.4169865,-1.234293,9.262737,30.98249,-7.140141,890.494
1.901685238,-55.26474,491.1891,29.44263,3.773297,0.08275585,-1.833103,20.28294,25.82011,-20.24168,890.4958
1.921702862,-52.55599,1934.36,61.19977,15.09074,2.271749,-15.66323,20.28294,25.82011,-20.24168,890.4958
1.941720486,-101.5598,1934.36,96.3094,-5.820437,0.3427598,-15.83241,20.28294,25.82011,-20.24168,890.4908
1.961738586,-131.4792,116.7536,-5.423187,0.5438843,0.2325003,0.7068562,23.60155,12.10675,-17.69879,890.4908
1.981756210,-659.3168,-44.71428,33.95324,0.8651062,-1.33114,0.5006604,23.60155,12.10675,-17.69879,890.489
2.001773834,-45.96879,-96.21392,10.91254,-0.5998974,0.1135215,-0.3807083,-33.01551,25.60237,-4.546649,890.489
2.021791935,-232.4418,146.6376,11.82686,0.8549492,-0.3349763,0.9354693,-33.01551,25.60237,-4.546649,890.4908
2.041809559,184.029,-2.014454,9.937275,-0.3597885,0.9776142,0.5470183,-33.01551,25.60237,-4.546649,890.4908
2.061827660,-6.753428,-85.76044,-11.70147,-1.454362,2.042537,3.30678,-23.5402,10.99316,11.73246,890.4908
2.081845284,-94.48012,133.7627,-2.802156,1.346506,0.09889832,5.307406,-23.5402,10.99316,11.73246,890.4908
2.101862907,245.961,50.90261,-1.522118,1.859925,-0.3635248,1.297207,-22.97691,19.95625,17.35946,890.4926
2.121880055,-382.5315,-19.14163,40.04866,2.994302,-0.5158508,4.759417,-22.97691,19.95625,17.35946,890.4926
2.141898155,163.7134,37.79146,4.695213,-1.29146,-0.02904871,-2.382126,-8.23002,33.79221,11.12193,890.4944
2.161915779,-388.3799,-293.4717,-17.67499,0.934963,1.838007,6.964125,-8.23002,33.79221,11.12193,890.4944
2.181933403,129.6693,-61.1918,4.634258,-1.287847,-1.079745,-4.278343,-8.23002,33.79221,11.12193,890.4961
2.201951504,-43.3216,5.072653,-3.960286,-0.3322631,0.9844656,0.8259144,-21.15267,21.0155,19.92874,890.4961
2.221969128,72.84698,320.2127,10.303,1.419658,0.1184598,3.353109,-21.15267,21.0155,19.92874,890.4946
2.241986752,339.3514,-61.13274,-8.775669,1.080121,-1.417393,0.180771,-12.86971,27.74437,14.04975,890.4946
2.262004852,450.6566,3.064639,-3.167881,0.2543189,1.791017,5.168371,-12.86971,27.74437,14.04975,890.4946
2.282022476,120.1886,124.9038,6.280022,-0.4795481,-0.4618441,-0.8928642,-12.86971,27.74437,14.04975,890.4946
2.299537659,303.7682,-22.44895,-9.568074,-1.137634,-1.314683,-2.585074,-17.62942,25.96868,20.40891,890.4946
2.319555283,91.62357,260.5629,20.84808,1.946017,2.037785,1.993229,-17.62942,25.96868,20.40891,890.4946
2.339573383,-54.52599,1934.479,66.25897,15.51641,0.04519296,-15.67991,-8.838388,28.10711,-3.453223,890.4946
2.359591007,-120.5211,1934.538,114.9614,-5.834208,0.4422966,-15.83162,-8.838388,28.10711,-3.453223,890.4946
2.379608631,131.2699,160.0441,-12.43292,-1.505438,0.9998674,-0.3016902,-8.838388,28.10711,-3.453223,890.4893
2.399626732,-181.9605,-26.87839,6.645748,0.6750639,0.01768,-0.5477259,9.512216,21.05597,-36.58447,890.4893
2.419644356,-44.12191,32.35801,0.9770054,0.03427426,-0.3530023,-1.50349,9.512216,21.05597,-36.58447,890.4893
2.439661980,177.1956,-14.1216,-10.7262,0.3154824,0.08903616,0.108336,4.336535,22.10465,-14.85842,890.4893
2.459680081,-186.2699,23.61725,11.09541,-0.07503425,0.6566229,-1.135054,4.336535,22.10465,-14.85842,890.4893
2.479697228,-86.35385,24.14878,4.999984,0.2431251,-0.4858029,-2.782281,4.336535,22.10465,-14.85842,890.4893
2.499714851,-76.38071,218.8671,6.401931,-0.3303762,-1.056322,-3.041398,13.3093,28.78534,-11.33941,890.4878
2.519732952,213.2713,10.5061,-5.17937,0.05536884,0.4571405,-0.07829487,13.3093,28.78534,-11.33941,890.4878
2.539750576,-73.73352,-40.34389,3.415174,0.6165674,-0.2599042,-0.0627387,16.93569,29.82404,-11.73962,890.4895
2.559768200,28.82974,106.0049,7.621015,0.489638,1.114514,-0.7677125,16.93569,29.82404,-11.73962,890.4895
2.579786301,-43.56785,80.49128,3.110403,-1.409175,-1.522703,-2.612252,16.93569,29.82404,-11.73962,890.4914
2.599803925,142.7205,53.26498,5.365709,0.95101,0.4684253,-0.7016249,13.27436,29.86947,-6.671921,890.4914
2.619821549,44.83602,-133.9528,-5.545096,0.4477848,0.9083028,1.721872,13.27436,29.86947,-6.671921,890.4914
2.639839649,-206.7087,30.35,5.975251,-0.2141477,0.1350208,-2.159645,18.33775,31.57502,-12.09558,890.4914
2.659857273,34.06256,2.296869,-0.1201706,-1.072448,-0.16132,-1.911528,18.33775,31.57502,-12.09558,890.4914
2.679874420,37.01757,133.3493,1.220822,-0.4317103,-0.2792616,-2.220255,18.33775,31.57502,-12.09558,890.4914
2.699892044,104.6133,46.11881,-5.484142,0.02166748,0.2843422,-1.219493,9.638698,30.30276,-7.138612,890.4914
2.719910145,97.53358,-78.67333,-7.007997,-0.3780348,-0.284339,-0.479476,9.638698,30.30276,-7.138612,890.4914
2.739927769,-153.8264,607.9492,46.5098,5.277744,-0.3326094,-2.403544,21.35143,24.76931,-22.41191,890.4914
2.759945393,-100.4517,1934.42,68.51428,16.01722,-0.2704209,-15.72546,21.35143,24.76931,-22.41191,890.4914
2.779963493,-109.3167,1931.23,79.6689,-5.279274,-0.3520691,-15.83653,21.35143,24.76931,-22.41191,890.4914
2.799981117,-142.6836,70.68745,-6.520363,-0.2059779,-0.7375096,1.083543,28.37353,25.78133,-47.53684,890.4794
2.819998741,-696.1928,-103.4191,40.35343,2.193323,-2.002686,1.597692,28.37353,25.78133,-47.53684,890.4794
2.840016842,-110.117,-93.14284,9.876321,-0.6298185,0.03599447,0.5973484,-41.34085,28.63895,-8.033744,890.4812
2.860034466,-247.6478,210.9531,13.59453,0.2198892,-1.524414,-1.805883,-41.34085,28.63895,-8.033744,890.4812
2.880052090,78.44918,23.02666,7.25529,0.7575288,0.259627,-0.1923181,-41.34085,28.63895,-8.033744,890.483
2.900069237,92.2392,-155.6275,-17.67499,-1.64517,2.344057,2.836701,-22.13375,12.06958,11.74792,890.483
2.920087337,114.5249,185.1442,0.4284174,-0.3895739,-1.327482,-0.7181119,-22.13375,12.06958,11.74792,890.483
2.940104961,219.6738,-7.152607,-10.90907,-0.7590112,-0.7404377,-2.028913,-22.63116,21.78097,18.61142,890.483
2.960123062,-464.2866,54.09181,34.74564,2.941961,0.2215331,5.509844,-22.63116,21.78097,18.61142,890.4812
2.980140686,71.73886,127.1481,12.31449,-0.02826658,-0.1481649,-0.006744081,-22.63116,21.78097,18.61142,890.4812
3.000158310,-268.8869,-196.969,-3.167881,-3.480348,6.420767,11.42621,-8.581923,31.22383,12.35585,890.483
3.020176411,78.88012,-75.42507,-22.1856,-0.8669533,-1.249607,-2.969729,-8.581923,31.22383,12.35585,890.483
3.040194035,187.4765,-9.869331,0.3674631,-0.4002897,2.040429,2.215195,-20.80439,22.78042,20.80737,890.4816
3.060211658,-112.7026,464.14,44.55927,-2.030899,-4.142408,-7.345693,-20.80439,22.78042,20.80737,890.4816
3.080228806,451.8262,-12.88135,-21.45415,1.082894,-0.9941255,1.256798,-12.85932,26.64282,14.04689,890.4816
3.100246906,378.1974,71.80958,1.647502,0.9085729,1.181794,1.618754,-12.85932,26.64282,14.04689,890.4816
3.120264530,134.4711,97.91376,4.268533,0.7644629,-1.03854,0.2539775,-12.85932,26.64282,14.04689,890.4816
3.140282154,313.5567,-39.69424,2.683723,-0.1226557,1.502434,1.757447,-16.51712,25.58182,20.4178,890.4816
3.160300255,-9.277494,577.4746,32.61224,5.210997,-0.2824279,1.119054,-16.51712,25.58182,20.4178,890.4833
3.180317879,-31.25533,1934.42,78.26695,16.01638,0.7669277,-15.76326,-8.074895,28.41926,-8.608034,890.4833
3.200335503,-89.00105,1913.808,78.206,-9.443108,-1.35961,-15.85739,-8.074895,28.41926,-8.608034,890.4761
3.220353603,38.00257,65.37212,-4.44792,-1.928175,0.3846674,-1.136596,-8.074895,28.41926,-8.608034,890.4761
3.240371227,-185.839,59.11184,9.57155,0.5939016,-0.1018308,-1.268316,15.39465,13.37917,-40.40888,890.4744
3.260388851,39.29539,-17.07456,-5.240324,0.4788382,-0.218052,-0.1787534,15.39465,13.37917,-40.40888,890.4744
3.280405998,84.91325,-66.44807,-2.680248,-0.04421544,0.3867335,0.6996022,5.076349,21.78392,-14.41728,890.4761
3.300424099,-196.6124,33.30296,9.388687,-0.1167894,-0.0481402,-2.523688,5.076349,21.78392,-14.41728,890.4761
3.320441723,-8.661869,37.25993,2.622769,-0.06822704,-0.5202184,-1.499869,5.076349,21.78392,-14.41728,890.4729
3.340459347,-37.35003,223.828,9.754413,-0.9225482,-1.164576,-5.214222,13.67891,28.77878,-11.33612,890.4729
3.360477448,181.8128,-61.13274,-2.802156,0.1973621,0.3956557,0.5820394,13.67891,28.77878,-11.33612,890.4747
3.380495071,-74.90321,55.45017,0.2455547,0.3578342,-0.161364,-1.227971,16.55457,30.56172,-10.87026,890.4747
3.400513172,-24.11408,113.2101,8.108648,-0.04807807,1.094044,-1.514943,16.55457,30.56172,-10.87026,890.4783
3.420530796,42.31195,-7.152607,-2.253568,-0.444663,-1.402391,-1.614591,16.55457,30.56172,-10.87026,890.4783
3.440548420,148.6921,-8.274732,3.476128,-0.3389138,0.771723,-0.8455089,13.64973,29.49736,-7.104959,890.48
3.460565567,1.865334,-59.24284,-1.217347,1.057616,1.054881,1.319103,13.64973,29.49736,-7.104959,890.48
3.480583668,-226.2856,59.4662,9.083917,-0.003277743,-0.4461942,-2.337263,18.69579,33.03883,-12.52383,890.4818
3.500601292,85.22106,-98.75346,-5.118416,0.4839014,-0.1506255,-2.039134,18.69579,33.03883,-12.52383,890.4818
3.520618916,74.81699,203.6888,-2.13166,-0.993996,0.09317037,-2.308719,18.69579,33.03883,-12.52383,890.4836
3.540637016,11.40753,74.17194,-1.461163,0.05474705,0.7144768,-0.5670093,10.38484,29.55528,-7.133959,890.4836
3.560654640,93.53201,-23.68919,5.243801,-0.009837545,0.8349444,1.066236,10.38484,29.55528,-7.133959,890.4853
3.580672264,83.92825,1173.914,66.13707,6.456692,-3.334258,-8.594707,20.32586,25.11129,-27.08503,890.4853
3.600690365,-41.22847,1934.538,119.7768,16.01693,0.1231003,-15.76859,20.32586,25.11129,-27.08503,890.4836
3.620707989,-46.33817,1611.425,49.92324,-6.491746,0.4714417,-15.71886,20.32586,25.11129,-27.08503,890.4836
3.640725136,9.622218,86.3972,4.878075,-0.2998872,-0.3123154,0.4176696,50.83118,24.36084,-52.06718,890.4836
3.660742760,-349.103,117.6986,39.62198,-0.962017,-2.821311,2.115752,50.83118,24.36084,-52.06718,890.4836
3.680760861,-276.5822,-201.7527,4.024716,-0.3017592,0.9578302,3.5834,-26.52184,21.56286,-2.322578,890.4836
3.700778485,-295.5435,183.6087,45.41263,0.7617588,-5.322071,-5.566794,-26.52184,21.56286,-2.322578,890.4836
3.720796108,143.7671,113.092,3.415174,0.6755109,0.04292946,1.547266,-26.52184,21.56286,-2.322578,890.4836
3.740814209,-121.3214,-169.6245,-17.67499,-2.315867,1.390422,2.797318,-21.78664,14.20331,12.19215,890.4871
3.760831833,-29.71627,226.2495,16.27651,-1.089999,1.018984,1.352449,-21.78664,14.20331,12.19215,890.4871
3.780849457,239.1275,95.25609,13.2288,-0.3622038,1.372169,2.315094,-23.38634,23.93902,17.80191,890.4871
3.800867557,73.1548,225.836,33.28274,-0.003572378,-1.706968,-1.174222,-23.38634,23.93902,17.80191,890.4871
3.820884705,-32.05565,-113.8136,-12.25006,1.031554,-0.06890673,1.851289,-23.38634,23.93902,17.80191,890.4889
3.840902328,-626.9349,-452.341,-24.19709,5.565972,-1.197485,9.146242,-8.926744,29.09173,11.47626,890.4889
3.860920429,-10.57031,27.33798,18.89754,-0.9490739,-1.06651,-5.172425,-8.926744,29.09173,11.47626,890.4872
3.880938053,7.282841,-7.566021,18.59277,-1.707533,3.160975,4.569928,-21.55171,23.89671,20.36831,890.4872
3.900955677,172.4553,235.0493,35.23328,-3.230468,-3.836339,-10.76093,-21.55171,23.89671,20.36831,890.4872
3.920973778,393.3418,62.89163,-8.288035,0.319084,0.2942645,0.2221289,-13.96239,26.29693,13.60071,890.4872
3.940991402,317.0042,90.05888,2.866586,-0.4271649,-0.1827212,2.572082,-13.96239,26.29693,13.60071,890.4889
3.961009026,152.1396,134.6486,7.560061,-1.325458,-0.1173895,-0.4229675,-13.96239,26.29693,13.60071,890.4889
3.981027126,194.0637,51.25697,1.952273,1.191536,1.036764,1.747878,-16.89595,26.32112,20.8518,890.4889
4.001044273,205.3912,1377.55,24.87106,10.59861,-5.288955,-1.927609,-16.89595,26.32112,20.8518,890.4889
4.021061897,9.006593,1934.538,109.8412,13.60199,0.1129141,-15.7711,-6.203862,29.51172,-14.93263,890.4889
4.041079521,95.31733,1050.067,41.93824,-10.45798,-1.172637,-15.81493,-6.203862,29.51172,-14.93263,890.4889
4.061097622,-31.93252,4.068646,-11.57956,-0.6058866,0.3664494,-0.8738233,-6.203862,29.51172,-14.93263,890.4836
4.081115246,-62.03662,37.02369,5.67048,-0.5703281,-1.176715,-1.316468,15.16184,-0.6252166,-41.3194,890.4836
4.101132870,-54.77224,58.10784,3.476128,-0.2973948,-0.3773614,-1.654454,15.16184,-0.6252166,-41.3194,890.4853
4.121150970,7.960029,-5.794245,1.891319,-0.2214883,0.477742,0.09351523,5.049212,24.6602,-14.40979,890.4853
4.141168594,-51.14005,14.9946,1.830364,-0.270413,-0.2224842,-1.85165,5.049212,24.6602,-14.40979,890.4856
4.161185741,-20.11251,58.04877,3.293265,-0.3622912,0.02748409,-2.03972,5.049212,24.6602,-14.40979,890.4856
4.181203365,96.11765,78.42421,1.281776,-1.561958,-0.7412256,-5.424726,14.73077,28.02421,-10.89337,890.4874
4.201221466,105.7214,26.62927,-0.9125754,0.2198872,0.8040537,0.6661692,14.73077,28.02421,-10.89337,890.4874
4.221239090,-25.77627,82.204,0.4893716,0.007077481,-0.0008513461,-1.49051,17.30184,30.18467,-11.73538,890.4892
4.241256714,-38.8891,46.47317,4.390441,-0.7297168,0.6324776,-0.9183713,17.30184,30.18467,-11.73538,890.4892
4.261274815,35.4785,-18.78728,-1.461163,0.0829115,-0.6863383,-0.6437461,17.30184,30.18467,-11.73538,890.4892
4.281292439,108.7995,-91.72542,-1.156392,-0.7472495,0.6904275,0.6487941,14.02627,28.75643,-7.103589,890.4892
4.301310539,-114.1186,98.14999,-1.095438,0.8300829,0.6024701,-0.6255125,14.02627,28.75643,-7.103589,890.4909
4.321328163,-168.5399,106.123,12.80212,-0.3765544,-1.213263,-3.559286,17.94597,33.7221,-11.72011,890.4909
4.341345310,137.303,1.765336,-4.326012,0.2958354,0.9056056,0.01503489,17.94597,33.7221,-11.72011,890.4895
4.361362934,49.69946,17.23885,-8.288035,-1.073962,-0.05642178,-1.946897,17.94597,33.7221,-11.72011,890.4895
4.381381035,-1.643733,74.17194,4.573304,-1.078005,0.1560174,-1.156225,11.13675,28.44224,-7.565627,890.4912
4.401398659,-57.17318,87.51933,-1.156392,0.4750219,0.7415782,-0.537501,11.13675,28.44224,-7.565627,890.4912
4.421416283,493.6888,1903.827,12.98499,11.22126,-1.105477,-2.023947,23.21884,25.0583,-26.62394,890.493
4.441434383,-7.369054,1934.538,128.2494,10.73019,2.791208,-15.75852,23.21884,25.0583,-26.62394,890.493
4.461452007,14.23941,607.0043,23.46911,-4.249269,-1.191911,-11.2339,23.21884,25.0583,-26.62394,890.4859
4.481469631,-13.2175,190.1643,8.657237,-0.0837071,0.8515241,0.695603,38.37414,17.21273,-13.26144,890.4859
4.501486778,-327.433,44.34704,26.39491,-0.9293963,-0.4851509,5.103449,38.37414,17.21273,-13.26144,890.4876
4.521504879,-387.3949,-106.254,16.8251,-0.2999258,1.171302,2.285597,-30.45409,19.11419,0.1858549,890.4876
4.541522503,309.1857,236.4667,-12.98151,-1.645613,-1.577522,-2.675738,-30.45409,19.11419,0.1858549,890.4895
4.561540127,217.2113,176.8169,6.462885,-0.2456573,0.5922511,-0.6336617,-30.45409,19.11419,0.1858549,890.4895
4.581558228,-356.6136,-277.4076,-29.25629,0.1475837,2.431057,7.77202,-19.64557,15.26336,13.0849,890.488
4.601575852,38.67976,66.19895,-5.60605,-0.8490158,0.09328616,-1.739175,-19.64557,15.26336,13.0849,890.488
4.621593475,200.8356,-58.23884,-4.813645,-1.529696,1.209359,2.302989,-24.46959,27.56684,18.17518,890.488
4.641611576,23.72005,178.4705,29.62549,-0.2132247,-1.004453,-2.535279,-24.46959,27.56684,18.17518,890.488
4.661628723,314.1723,-15.83431,-28.52484,-0.6359175,-0.6305089,0.03188135,-24.46959,27.56684,18.17518,890.4897
4.681646347,-278.7985,89.94076,14.14312,1.760954,-0.8777921,-0.2030698,-9.58219,26.96323,11.09149,890.4897
4.701663971,271.5094,107.4813,-6.398455,-0.01676797,-0.2176427,0.6560304,-9.58219,26.96323,11.09149,890.4897
4.721682072,-202.584,-152.3792,-3.472653,-0.05864364,-0.1125857,3.354965,-21.9346,25.31081,20.36869,890.4915
4.741699696,67.12167,231.5648,38.95148,-3.465683,-1.892484,-7.907727,-21.9346,25.31081,20.36869,890.4915
4.761717319,472.5728,136.3613,9.815367,-1.432376,0.6498219,-1.080733,-13.96122,25.92812,14.03512,890.4883
4.781735420,180.0275,-109.3251,5.853343,-0.9835285,2.002053,4.863486,-13.96122,25.92812,14.03512,890.4883
4.801753044,200.5894,-49.49807,-7.007997,0.257998,-0.207691,-0.2532478,-13.96122,25.92812,14.03512,890.49
4.821770191,185.5681,213.7289,17.80037,-0.1155057,3.085504,2.428097,-17.94664,26.70688,20.84345,890.49
4.841788292,248.485,1934.538,14.20407,15.97836,9.716845,10.08536,-17.94664,26.70688,20.84345,890.49
4.861805916,-45.84566,1934.538,106.7935,10.24639,2.153007,-15.76912,-5.865197,25.52355,-13.63416,890.49
4.881823540,131.5161,-52.92351,-16.21208,-3.211513,0.6377293,-6.012493,-5.865197,25.52355,-13.63416,890.4847
4.901841640,-25.59158,-56.64424,-4.752691,-0.6239666,0.4014734,-0.07161862,-5.865197,25.52355,-13.63416,890.4847
4.921859264,-1.397483,15.88049,5.731434,-0.1105242,-0.791178,-1.910471,12.99567,-5.27629,-31.08852,890.4832
4.941876888,-1.151233,-48.61218,-4.752691,-1.027536,-1.030486,-1.651912,12.99567,-5.27629,-31.08852,890.4832
4.961894989,76.6023,62.12386,-2.802156,-0.7758819,0.5139574,-1.059595,6.434851,28.18614,-14.82332,890.485
4.981912136,-128.5858,36.78746,12.92403,0.1293609,-0.1314502,-1.891242,6.434851,28.18614,-14.82332,890.485
5.001929760,9.252843,-106.9036,1.708456,-0.4489372,0.3891641,-0.5238722,6.434851,28.18614,-14.82332,890.4886
5.021947384,242.1441,-34.20173,-10.29952,-1.213025,0.07868843,-3.489745,15.09809,28.01603,-10.45472,890.4886
5.041965485,35.4785,29.0507,-7.800402,-0.7189237,0.2840465,-0.2849635,15.09809,28.01603,-10.45472,890.4903
5.061983109,13.19285,65.07683,-3.167881,-0.246286,-0.1311267,-1.237749,16.92994,30.1896,-11.3033,890.4903
5.079498291,-16.11094,33.36202,0.4893716,-0.908686,0.4474556,-1.544625,16.92994,30.1896,-11.3033,890.4939
5.099515915,37.32538,-159.0529,-6.581317,0.2056249,-0.3569975,-0.4961987,16.92994,30.1896,-11.3033,890.4939
5.119534016,26.9213,28.7554,1.098914,-1.052381,0.9729156,0.5685702,14.7131,28.01167,-7.534847,890.4975
5.139551640,-159.798,146.5195,5.121892,-0.1123081,-0.1672724,-0.8453575,14.7131,28.01167,-7.534847,890.4975
5.159569263,-51.26317,19.01063,7.621015,-0.3192495,-0.5119725,-3.337837,17.25337,34.83242,-10.85253,890.5009
5.179587364,63.92041,103.8197,-2.497385,-0.5280088,0.0008921137,-1.996475,17.25337,34.83242,-10.85253,890.5009
5.199604988,90.82326,-49.43901,-6.03273,-0.05040832,-0.2982827,-0.6037332,17.25337,34.83242,-10.85253,890.5009
5.219622135,-6.32249,-1.955395,-0.1811248,-0.4612179,0.2871438,-0.8131729,11.83765,26.66014,-8.808129,890.5009
5.239639759,-40.8591,48.36306,-8.836623,0.6188129,0.6073868,-0.1062763,11.83765,26.66014,-8.808129,890.4977
5.259657860,222.8134,1934.538,16.52033,15.98135,10.0347,7.316374,26.79972,25.37023,-28.76807,890.4977
5.279675484,-144.038,1934.538,116.79,6.924676,2.854609,-15.77329,26.79972,25.37023,-28.76807,890.4942
5.299693108,36.70976,71.6324,-10.84811,-1.343401,-0.601748,-3.101551,26.79972,25.37023,-28.76807,890.4942
5.319711208,0.6956447,8.793384,22.31098,-3.002318,2.764815,0.7543688,11.94791,23.84285,-24.61312,890.4923
5.339728832,-237.6131,-11.75923,23.10339,-0.96704,-2.649297,0.02866061,11.94791,23.84285,-24.61312,890.4923
5.359746933,-838.7717,-432.1428,29.19881,2.222328,2.767087,7.560256,-39.1815,23.9209,-0.3145447,890.489
5.379763603,-40.3666,290.9784,-17.30926,0.8229295,2.667151,8.949007,-39.1815,23.9209,-0.3145447,890.489
5.399781704,342.8605,165.1232,10.12014,-0.4892455,0.3321568,-1.53369,-39.1815,23.9209,-0.3145447,890.4909
5.419799328,-418.7303,-21.62212,19.08041,3.189277,-2.735008,4.321799,-16.72896,13.44053,12.23526,890.4909
5.439817429,46.86758,-86.17385,-11.15288,0.1526986,-0.3837292,0.05803559,-16.72896,13.44053,12.23526,890.4909
5.459835053,-192.9187,-39.98954,7.011473,-2.588962,3.202279,3.460324,-25.25152,31.86215,18.61514,890.4909
5.479852677,127.2068,208.886,37.54953,-2.328491,-0.144949,-4.473739,-25.25152,31.86215,18.61514,890.4926
5.499870777,261.4132,-57.41201,-24.80663,0.2235721,-1.45864,0.4174793,-25.25152,31.86215,18.61514,890.4926
5.519887924,-302.8079,114.9819,53.09286,-0.3705065,-6.009117,-3.568066,-9.535635,21.57485,11.88599,890.4944
5.539905548,180.8893,17.94756,0.001737846,-0.04256833,0.6984776,-0.51091,-9.535635,21.57485,11.88599,890.4944
5.559923172,-91.83292,5.604186,-10.11666,-1.048493,1.772756,3.748298,-23.74935,28.58758,19.92591,890.4944
5.579941273,164.5753,127.03,39.80484,-3.932894,-0.5732271,-6.405867,-23.74935,28.58758,19.92591,890.4962
5.599958897,547.0635,58.40313,-11.45765,-1.667276,0.9176411,-1.854619,-23.74935,28.58758,19.92591,890.4962
5.619976521,-111.533,-31.60312,-2.070706,-1.588958,2.699991,6.314856,-13.21218,24.87465,14.03898,890.4911
5.639994621,290.5323,101.8707,1.342731,0.4139998,-0.3326721,-0.2373881,-13.21218,24.87465,14.03898,890.4911
5.660011768,191.1087,241.3686,1.281776,-0.8575379,-1.2554,-0.1662392,-17.96339,28.48161,20.84808,890.4947
5.680029392,-238.9059,1925.029,94.29791,15.98346,-3.009741,-15.79463,-17.96339,28.48161,20.84808,890.4947
5.700047016,-174.3883,1934.538,79.36414,7.076783,2.733957,-15.77384,-17.96339,28.48161,20.84808,890.4929
5.720065117,219.4275,-130.8226,-35.9003,0.6191836,-0.694939,0.5211328,-9.745818,20.95526,-17.10202,890.4929
5.740082741,-132.5873,-74.71636,10.36395,0.298055,1.035664,0.9427311,-9.745818,20.95526,-17.10202,890.4894
5.760100365,-57.9735,46.65034,8.108648,-0.295462,0.209723,-1.229277,4.458817,16.09233,-27.25098,890.4894
5.780118465,178.7346,2.178751,-13.5301,-0.580728,0.04368676,-0.006332673,4.458817,16.09233,-27.25098,890.4911
5.800135612,-4.783425,6.78537,6.219068,0.3075333,1.029092,0.3687658,8.954762,28.5069,-14.36457,890.4911
5.820153236,-123.5992,22.55418,13.71644,-0.3409633,-0.5020489,-2.752286,8.954762,28.5069,-14.36457,890.4947
5.840170860,-38.82753,-3.195639,-3.960286,0.8011076,1.02885,0.01467559,8.954762,28.5069,-14.36457,890.4947
5.860188961,251.6863,-82.98465,-10.29952,-0.01058797,0.987536,-1.730698,15.1102,26.9773,-10.8928,890.4934
5.880206585,22.67349,-41.99755,-6.886088,-0.4848917,-0.01294307,0.8321721,15.1102,26.9773,-10.8928,890.4934
5.900224686,9.622218,18.83345,-2.741202,-0.3994702,-0.02598599,-1.55716,17.29608,30.55023,-11.29906,890.4953
5.920242310,-87.95448,82.26306,-0.3030333,0.245497,0.1651088,-1.529967,17.29608,30.55023,-11.29906,890.4953
5.940259457,-32.24033,38.91359,-4.44792,-0.4249772,-1.023375,0.07370828,17.29608,30.55023,-11.29906,890.497
5.960277081,-31.50159,-37.44999,1.464639,-0.4755278,-0.3922283,-1.868166,15.09253,26.96476,-7.534274,890.497
5.980295181,-125.1383,106.9498,2.866586,-0.363816,0.2315087,-1.722078,15.09253,26.96476,-7.534274,890.4988
6.000312805,-37.71941,73.58135,-0.5468501,0.1847081,0.1976054,-0.9825122,15.75879,36.32576,-10.42647,890.4988
6.020330429,175.4103,-2.782224,-4.813645,1.272289,0.3904529,-0.3694058,15.75879,36.32576,-10.42647,890.4988
6.040348530,99.01109,-21.56306,-6.76418,-0.3211781,-0.07985836,-0.7640982,15.75879,36.32576,-10.42647,890.4988
6.060366154,-47.56942,12.27788,-7.007997,0.1417031,-0.5504442,-1.692733,13.32845,25.53375,-9.171036,890.5006
6.080383301,-115.7808,216.0913,8.230557,1.459348,-0.1187265,-0.7170374,13.32845,25.53375,-9.171036,890.5006
6.100400925,-96.45012,1934.538,53.94622,15.50824,-5.667818,-15.81807,26.21739,23.66327,-43.70549,890.4973
6.120419025,-210.4024,1934.538,136.3563,-0.5423892,0.3898738,-15.81615,26.21739,23.66327,-43.70549,890.4973
6.140436649,61.82729,22.55418,-4.874599,0.1883253,1.044407,0.3158749,26.21739,23.66327,-43.70549,890.4901
6.160454273,-888.145,-441.297,19.99472,1.11969,3.514834,8.680094,24.35342,28.73654,-49.67953,890.4901
6.180472374,-113.1336,225.4226,29.7474,-0.664884,-0.6990023,-2.30173,24.35342,28.73654,-49.67953,890.4937
6.200489998,-456.1603,3.241817,12.55831,2.083717,-3.895164,-3.160556,-29.7381,20.1319,2.745121,890.4937
6.220507145,238.0194,164.4144,-8.775669,0.7967571,-0.9872622,1.017336,-29.7381,20.1319,2.745121,890.4937
6.240524769,84.91325,-35.14668,1.891319,-1.964713,1.443073,0.4900079,-29.7381,20.1319,2.745121,890.4937
6.260542870,-94.91105,187.2704,16.76415,2.472853,-3.360518,-0.7099192,-16.34667,12.33404,11.80031,890.4905
6.280560494,-3.798424,-110.9787,-13.04246,1.302973,-0.1100298,0.9154894,-16.34667,12.33404,11.80031,890.4905
6.300578117,-350.5805,-153.3833,11.46113,1.085352,0.6182567,8.388841,-26.70627,36.60413,17.37093,890.4922
6.320596218,122.9589,94.78362,12.49735,-1.07226,-1.177655,-4.245172,-26.70627,36.60413,17.37093,890.4922
6.340613842,270.8938,-1.010448,-20.29602,-2.625781,1.147581,0.9295554,-26.70627,36.60413,17.37093,890.4922
6.360630989,198.1884,217.2134,-7.068951,-0.7444295,1.21037,-0.04740649,-9.876934,18.33632,12.30962,890.4922
6.380648613,327.4083,76.35714,11.40018,0.7145251,0.3761077,3.041998,-9.876934,18.33632,12.30962,890.4958
6.400666714,-191.0718,107.3632,28.46736,2.32823,0.3692622,6.522313,-23.75052,28.95639,19.4915,890.4958
6.420684338,233.5869,-84.63831,-16.21208,-0.5924415,-1.09788,-0.4409621,-23.75052,28.95639,19.4915,890.4976
6.440702438,541.5229,17.35697,-5.362233,-0.5036964,0.9344556,1.17476,-23.75052,28.95639,19.4915,890.4976
6.460720062,-283.3541,-311.8391,27.30923,2.41443,-1.682566,4.531094,-13.19603,23.40754,13.59979,890.4961
6.480737209,271.6941,-103.4782,-0.8516212,-0.9138017,-0.2042216,-0.8789918,-13.19603,23.40754,13.59979,890.4961
6.500754833,204.0369,218.6308,-4.935554,1.257399,0.5754511,1.351967,-19.07456,29.2389,19.96941,890.4979
6.520772934,68.78386,1934.538,82.5947,6.274829,3.55003,-15.61731,-19.07456,29.2389,19.96941,890.4979
6.540790558,-218.1593,1934.538,113.7423,-0.73124,-0.5241758,-15.82429,-10.49194,24.5983,-22.26135,890.4979
6.560808182,163.5903,78.24703,-15.05395,0.7966465,0.5520858,2.075059,-10.49194,24.5983,-22.26135,890.4908
6.580826283,-233.4884,-2.014454,10.54682,0.2638595,0.2471822,-0.5794299,-10.49194,24.5983,-22.26135,890.4908
6.600843430,43.72789,5.427008,-9.629028,-0.04624503,0.1204472,-0.706538,3.647408,24.00153,-27.67234,890.4925
6.620861054,99.99609,-34.49703,-0.7906669,0.05755782,-0.008727083,-0.3555889,3.647408,24.00153,-27.67234,890.4925
6.640878678,-138.9899,30.17282,12.00972,-0.01977541,0.3428224,-0.9326466,10.05901,28.48397,-13.48399,890.4911
6.660896778,-26.57658,-73.18082,-2.863111,0.2045864,-0.06916668,-1.06824,10.05901,28.48397,-13.48399,890.4911
6.680914402,-157.0892,165.005,7.377198,0.7104214,0.3425527,-2.587052,10.05901,28.48397,-13.48399,890.4946
6.700932026,261.1053,-91.78448,-10.66525,0.5616603,0.1644258,0.6024764,15.48674,26.23637,-10.89143,890.4946
6.720950127,-95.71136,-16.83832,-1.887843,0.3908989,-0.4161376,-0.06712644,15.48674,26.23637,-10.89143,890.4946
6.740967274,2.850335,80.66846,3.110403,0.09052034,1.101174,-2.173434,16.55515,30.50052,-10.87042,890.4946
6.760984898,-47.93879,67.91167,0.06269206,-0.3049302,-1.065089,-1.398807,16.55515,30.50052,-10.87042,890.4964
6.781002521,48.59134,68.32508,5.67048,0.3718211,-0.7463513,-2.307702,16.55515,30.50052,-10.87042,890.4964
6.801020622,51.85415,-125.212,-2.192614,0.1579337,1.103082,0.3486381,15.10175,26.23202,-7.971551,890.4948
6.821038246,-170.633,-2.900343,1.464639,0.08452991,0.680122,-0.930989,15.10175,26.23202,-7.971551,890.4948
6.841055870,32.64663,46.00069,0.1236463,-1.659443,-0.9327915,-3.019248,14.34195,36.35089,-10.43906,890.4967
6.861073017,29.01443,168.2533,4.268533,-0.3044287,0.4919011,-1.289772,14.34195,36.35089,-10.43906,890.4967
6.881091118,92.91639,6.312896,-12.67674,0.7096061,-0.01358595,-0.8048975,14.34195,36.35089,-10.43906,890.4984
6.901108742,68.35292,-53.86845,0.5503258,0.8568216,-0.1664736,-1.609623,14.08899,23.74916,-10.03982,890.4984
6.921126366,-76.50384,496.3863,41.08488,3.379249,0.1601803,-2.627885,14.08899,23.74916,-10.03982,890.5002
6.941144466,-31.3169,1934.42,57.42061,15.01074,1.851735,-15.48965,31.99872,24.29329,-43.21677,890.5002
6.961162090,-108.6395,1934.538,102.5877,-6.109428,0.4995978,-15.83197,31.99872,24.29329,-43.21677,890.4948
6.981179714,-100.267,118.112,-11.15288,0.8078895,0.8327168,1.870644,31.99872,24.29329,-43.21677,890.4948
7.001196861,-746.1816,36.01968,70.03814,1.915607,-1.388252,0.4081715,37.00093,21.27329,-28.68799,890.4898
7.021214962,-207.0781,-195.1972,19.56804,-0.675765,0.9515137,1.184046,37.00093,21.27329,-28.68799,890.4898
7.041232586,-708.8747,13.22283,38.70766,1.136569,2.570744,5.81664,-26.81275,16.15903,4.066729,890.4915
7.061250687,312.0792,-63.84947,8.41342,2.32337,1.814338,3.374702,-26.81275,16.15903,4.066729,890.4915
7.081268311,109.4152,-69.75539,-19.80838,0.2213429,0.05207228,0.8039139,-26.81275,16.15903,4.066729,890.4915
7.101285934,-78.84322,295.4669,-8.348989,0.5585195,0.2484988,2.381022,-14.84685,9.797097,12.24227,890.4915
7.121303082,67.5526,22.43606,8.840099,0.2182288,-1.357872,1.978756,-14.84685,9.797097,12.24227,890.4915
7.141321182,-142.1295,6.490074,32.85606,0.9038514,-3.554128,-1.743822,-24.60102,41.95124,17.40411,890.4915
7.161338806,67.0601,-37.03658,3.719945,-0.7204651,0.9226285,0.1478761,-24.60102,41.95124,17.40411,890.4951
7.181356430,-37.04222,-91.07577,-17.18735,0.6266933,0.9434462,5.001595,-24.60102,41.95124,17.40411,890.4951
7.201374531,-62.8985,-62.96358,-10.84811,-2.385847,-1.587238,-3.284834,-11.3132,13.64872,12.71958,890.4969
7.221392155,173.2556,-4.908356,7.803878,0.1127588,0.5884067,2.56125,-11.3132,13.64872,12.71958,890.4969
7.241409302,119.1421,346.0806,11.33922,-1.129111,-4.137202,-5.71098,-21.9901,32.17141,18.6451,890.4937
7.261426926,371.4871,-32.66619,-13.46914,1.064754,-0.1800229,1.130629,-21.9901,32.17141,18.6451,890.4937
7.281445026,433.419,35.84251,8.047694,-0.3302109,1.696163,1.059361,-21.9901,32.17141,18.6451,890.4954
7.301462650,155.0331,122.4824,4.390441,-0.3802178,-2.440401,0.8592454,-14.9798,22.70185,14.39054,890.4954
7.321480274,320.1439,-30.18571,-2.680248,0.5060554,-0.1041802,1.947006,-14.9798,22.70185,14.39054,890.499
7.341498375,-14.57188,521.5455,42.30396,4.354995,0.3360316,1.244313,-22.33759,30.7767,16.95888,890.499
7.361515522,-35.44159,1934.42,79.6689,16.01707,-0.03336188,-15.76988,-22.33759,30.7767,16.95888,890.4972
7.381533146,-79.52041,1924.852,90.15303,-8.264101,-0.367299,-15.84563,-5.391003,25.22157,-32.85005,890.4972
7.401550770,50.93071,121.4193,-6.03273,-2.072794,0.6240156,-1.770343,-5.391003,25.22157,-32.85005,890.4954
7.421568871,-81.67509,15.17178,4.08567,0.3876949,-0.2203009,-0.3935485,-5.391003,25.22157,-32.85005,890.4954
7.441586495,-48.18504,13.57718,3.110403,0.2200055,0.4458086,-0.8373489,1.56281,15.03424,-25.16494,890.4972
7.461604118,63.18166,-26.87839,0.4893716,0.2809748,0.1051254,-0.06845418,1.56281,15.03424,-25.16494,890.4972
7.481621266,-105.192,-6.91637,1.159868,0.1638976,0.2215215,-1.175139,10.41822,29.57897,-13.47784,890.4975
7.501639366,-73.30258,54.6824,6.889565,0.1375112,-0.2997484,-2.050107,10.41822,29.57897,-13.47784,890.4975
7.521656990,-39.99722,212.5477,10.36395,-1.173558,-1.2792,-4.896104,10.41822,29.57897,-13.47784,890.4993
7.541674614,156.6952,-0.7742106,-3.594561,0.2170776,0.5322801,-0.4883164,14.76655,24.47639,-11.33798,890.4993
7.561692715,-96.57324,53.32404,3.719945,0.5941747,0.188307,-0.8794215,14.76655,24.47639,-11.33798,890.4993
7.581710339,46.49821,108.1901,9.937275,-0.1617523,1.193358,-0.9313437,15.07502,30.21751,-10.01362,890.5028
7.601727486,-25.7147,29.40505,-0.9735296,-0.7565767,-1.651147,-1.777499,15.07502,30.21751,-10.01362,890.5028
7.621745110,132.6243,-14.00348,0.9770054,-0.2937945,0.9986544,-0.30917,15.07502,30.21751,-10.01362,890.5031
7.641763210,-23.86783,-55.404,-5.667004,1.303196,0.8141236,0.8883594,16.59137,25.47444,-8.768866,890.5031
7.661780834,-214.2809,104.4693,11.03445,0.1241343,-0.7939419,-2.370196,16.59137,25.47444,-8.768866,890.5031
7.681798935,92.85483,-75.30695,-1.461163,0.6556833,0.4032834,-0.9711803,11.4415,36.70662,-10.02861,890.5031
7.701816559,-20.05095,134.8848,-6.337501,-0.7142581,-0.1309219,-3.120399,11.4415,36.70662,-10.02861,890.5049
7.721833706,55.85572,101.2211,1.220822,0.5780385,0.4033568,-0.6134257,11.4415,36.70662,-10.02861,890.5049
7.741851330,33.69319,-18.90539,5.914297,0.1545281,0.7240213,1.02523,13.38111,21.62827,-12.16659,890.5067
7.761869430,149.4308,1315.006,51.02042,6.537422,-4.508059,-7.400748,13.38111,21.62827,-12.16659,890.5067
7.781887054,-34.94909,1934.538,112.828,16.01757,-0.6135354,-15.77468,35.89001,21.96915,-29.50462,890.5051
7.801904678,-59.75881,1455.685,41.9992,-6.728974,0.269315,-15.83574,35.89001,21.96915,-29.50462,890.5051
7.821922779,-3.552173,146.992,6.097159,0.04762254,-1.065261,0.9608127,35.89001,21.96915,-29.50462,890.4998
7.841939926,-384.5015,33.42108,30.41789,-0.1268864,-1.969589,-0.8593612,2.908107,20.70459,-10.14786,890.4998
7.859455585,-86.04604,-133.3031,5.67048,-0.8691278,-0.2506777,1.896247,2.908107,20.70459,-10.14786,890.5015
7.879473209,-53.11005,282.0604,0.9160511,0.03588126,0.5562516,1.043292,-30.1021,18.35584,4.85184,890.5015
7.899491310,100.6117,-251.5987,6.036205,2.528529,0.08877936,3.894386,-30.1021,18.35584,4.85184,890.5034
7.919508457,-152.1027,-299.0233,-32.73067,-1.688295,3.086471,6.136107,-30.1021,18.35584,4.85184,890.5034
7.939526081,154.479,48.71742,7.803878,-1.6837,-0.6447079,-2.965725,-16.29815,6.947048,12.22165,890.5034
7.959543705,166.6068,0.5250923,-1.339255,0.6175304,1.457265,2.031291,-16.29815,6.947048,12.22165,890.5034
7.979561806,-64.80695,38.91359,12.55831,-0.2793465,-0.5491035,0.5780966,-17.07148,48.31351,14.87613,890.5018
7.999579430,142.2896,-139.9768,-14.68823,0.4146549,1.072071,1.513457,-17.07148,48.31351,14.87613,890.5018
8.019597054,-89.55511,-165.7266,-25.9038,0.1331989,3.861447,7.747107,-17.07148,48.31351,14.87613,890.5037
8.039614201,62.50448,-41.82037,16.94701,-2.745099,-1.38591,-6.326898,-16.3287,9.451263,13.53428,890.5037
8.059632301,123.8824,-54.39999,-3.960286,-0.3441664,1.475672,4.357644,-16.3287,9.451263,13.53428,890.5054
8.079649925,199.4197,305.9203,13.96025,-0.3986493,0.02684891,1.862276,-15.47171,34.20375,17.02942,890.5054
8.099667549,308.5701,-64.55817,-15.72445,0.2938946,-1.420107,-0.8071669,-15.47171,34.20375,17.02942,890.5025
8.119685650,523.6082,112.7376,3.780899,-1.33036,2.499316,1.435004,-15.47171,34.20375,17.02942,890.5025
8.139702797,95.68671,122.9549,6.340977,-1.682561,-0.1350693,-0.5633241,-16.08981,23.09033,13.94628,890.5042
8.159720421,297.8582,7.671258,1.952273,1.78016,-0.3329957,2.60501,-16.08981,23.09033,13.94628,890.5042
8.179738045,95.68671,1076.466,40.47534,9.292439,-6.307312,-5.168619,-21.22255,31.80877,13.92389,890.5042
8.199756146,-4.167799,1934.538,91.9207,15.32022,-0.7387961,-15.77637,-21.22255,31.80877,13.92389,890.5042
8.219773769,86.88326,1318.786,46.02217,-11.04221,-0.3537099,-15.85387,-21.22255,31.80877,13.92389,890.4971
8.239791393,33.38538,23.20383,-19.01598,-0.9159277,-0.00695241,-0.8763983,-0.4979357,16.24906,-45.27017,890.4971
8.259808540,-136.5273,51.37508,8.596283,0.2712223,-0.989441,-0.9577817,-0.4979357,16.24906,-45.27017,890.4956
8.279826641,-96.38856,11.62823,4.756167,-0.3262751,-0.496968,-1.946366,2.707969,8.509999,-20.44518,890.4956
8.299844265,66.75229,26.98362,-7.373722,0.1779587,0.1495796,-0.1959377,2.707969,8.509999,-20.44518,890.4956
8.319861889,-171.7411,46.94564,9.693459,0.3249851,-0.09249233,-1.190783,2.707969,8.509999,-20.44518,890.4956
8.339879990,-7.923117,14.87648,5.548572,-0.9419826,-1.070117,-2.887788,11.51495,30.59803,-13.02991,890.4973
8.359897137,18.73348,159.3944,2.744678,-1.378899,-1.196836,-5.318765,11.51495,30.59803,-13.02991,890.4973
8.379914761,135.1483,17.41603,-2.497385,0.6470777,0.9581984,0.126193,14.08029,25.15996,-10.90688,890.4958
8.399932385,-6.014677,76.00278,0.06269206,0.05806326,0.1552392,-0.904013,14.08029,25.15996,-10.90688,890.4958
8.419950485,-24.36033,85.27508,4.51235,-0.7880245,0.4569196,-1.498771,14.0255,30.23446,-9.587557,890.4958
8.439968109,53.27009,-81.98064,-3.777424,-0.9634551,-0.7942886,-1.868614,14.0255,30.23446,-9.587557,890.4976
8.459986210,73.70886,13.93154,-1.400209,-0.917635,0.7682261,-0.4013633,14.0255,30.23446,-9.587557,890.4976
8.480003357,-116.3964,73.64041,2.378952,0.7423553,0.1420993,-0.0885013,17.3302,26.20034,-10.00428,890.4993
8.500020981,-150.502,120.1791,12.80212,-0.3518882,-0.8304022,-4.030458,17.3302,26.20034,-10.00428,890.4993
8.520038605,17.25598,10.09269,-4.265057,0.4005968,0.3552475,-0.9752435,8.852078,36.0733,-8.436284,890.5029
8.540056706,104.8595,4.54112,-6.703226,-0.4110624,-0.09522856,-2.039916,8.852078,36.0733,-8.436284,890.5029
8.560074330,9.560656,46.17787,1.586547,-0.6654908,0.2873717,-1.252936,8.852078,36.0733,-8.436284,890.5015
8.580091953,-30.63971,27.51516,-2.13166,0.4036748,0.8942615,0.1732433,15.90036,22.99588,-13.44658,890.5015
8.600109100,468.325,1934.538,25.11488,11.79188,-2.344406,-3.819531,15.90036,22.99588,-13.44658,890.505
8.620127201,5.559089,1934.538,142.147,11.25908,3.295539,-15.75227,32.07489,16.70807,-44.10727,890.505
8.640144825,71.73886,529.4005,29.7474,-5.208419,-0.7366033,-10.97406,32.07489,16.70807,-44.10727,890.4997
8.660162449,-47.01535,126.3212,9.815367,-0.6310322,-0.2577666,-0.6515219,32.07489,16.70807,-44.10727,890.4997
8.680180550,-453.0206,4.186764,51.4471,-0.9105166,-3.610138,2.117587,-6.910906,33.55213,-28.17634,890.5015
8.700197697,-573.7448,-255.7919,22.06717,1.581311,1.208896,5.579636,-6.910906,33.55213,-28.17634,890.5015
8.720215321,-490.266,45.52822,49.25275,-2.270878,-5.123727,-8.714507,-22.5106,15.70583,6.654064,890.4982
8.740232944,250.8244,151.6577,3.35422,-1.150814,0.7749537,0.4593836,-22.5106,15.70583,6.654064,890.4982
8.760251045,-270.4875,-105.7225,-5.240324,0.3413065,1.125508,5.659762,-22.5106,15.70583,6.654064,890.4982
8.780268669,310.5401,12.27788,-20.60079,-0.7049354,0.1825345,-1.715779,-19.18533,5.895231,12.62842,890.4982
8.800285816,102.7664,11.03763,-9.324257,0.8589879,-1.401173,1.182219,-19.18533,5.895231,12.62842,890.4982
8.820303440,114.3402,-8.806265,26.51682,0.4412224,-1.104697,-2.046198,-8.765472,49.94535,13.71073,890.4982
8.840321541,148.6921,-182.3223,-27.85434,2.170136,-0.7121819,3.756234,-8.765472,49.94535,13.71073,890.4982
8.860339165,-552.2595,154.6697,34.25801,2.363378,-3.22348,0.4315184,-8.765472,49.94535,13.71073,890.4982
8.880356789,93.16264,-49.20278,-4.082195,0.7672682,-1.164585,0.4534343,-19.97085,9.140658,15.61566,890.4967
8.900374889,-313.212,-157.6946,-7.861356,1.727075,-2.604648,2.42516,-19.97085,9.140658,15.61566,890.4967
8.920392036,328.9473,227.9622,13.53357,-0.7035936,-0.6079271,-2.700144,-10.41926,34.48458,16.20451,890.4984
8.940409660,596.1289,44.70139,-15.35872,-0.3367088,-0.4813356,0.2644614,-10.41926,34.48458,16.20451,890.4984
8.960427284,55.60947,-81.62629,2.439906,-0.04132922,1.46717,3.697101,-10.41926,34.48458,16.20451,890.4984
8.980445385,264.4297,62.53727,4.695213,-0.2725715,-0.5195535,-0.2168437,-17.57204,23.48351,13.9963,890.4984
9.000463009,161.5587,192.0542,8.291512,-0.6969892,-0.2841897,0.1770845,-17.57204,23.48351,13.9963,890.497
9.020480156,68.84542,1934.538,16.27651,15.98064,9.008379,8.657693,-12.55658,35.64505,10.65289,890.497
9.040497780,-49.35473,1934.538,78.93745,10.84998,1.613522,-15.77177,-12.55658,35.64505,10.65289,890.4952
9.060515881,137.2415,-124.0308,-21.27128,-2.128147,0.02308696,-4.971285,-12.55658,35.64505,10.65289,890.4952
9.080533505,-32.48658,-80.03169,-1.339255,0.1746681,0.7399424,0.5123553,-4.150012,11.92695,-34.18089,890.4952
9.100551605,-82.96791,27.27892,9.998229,-0.4054382,-0.6630317,-2.255239,-4.150012,11.92695,-34.18089,890.4952
9.120568275,95.87139,-41.11166,-13.59105,-0.6448826,-0.4072451,-0.8185095,0.4676199,10.01181,-18.7818,890.497
9.140586376,21.07286,-6.266718,3.719945,-0.171947,0.8235978,0.5240841,0.4676199,10.01181,-18.7818,890.497
9.160604000,-129.6939,52.26097,13.10689,-0.6069604,-0.5863649,-2.595805,0.4676199,10.01181,-18.7818,890.4987
9.180622101,25.4438,-62.07769,0.3674631,-0.5482597,0.5940808,-0.583346,12.5697,29.53747,-12.58796,890.4987
9.200639725,207.6075,-30.12665,-4.996508,-1.170467,0.452075,-4.206365,12.5697,29.53747,-12.58796,890.5005
9.220656872,91.00795,5.131712,-5.910821,-0.2300604,0.05626406,1.037868,14.74634,26.6183,-11.3324,890.5005
9.240674496,-4.044674,65.43118,-0.6687585,-0.4117216,0.08911832,-1.19729,14.74634,26.6183,-11.3324,890.499
9.260692596,-85.79979,7.671258,0.1236463,0.06298415,0.5106416,-0.773996,13.27717,30.54915,-8.411623,890.499
9.280710220,10.05316,-83.16183,-4.935554,0.5421484,-0.1563217,2.04862,13.27717,30.54915,-8.411623,890.5007
9.300727844,6.54409,-62.25487,-0.6078043,-0.5759891,0.58482,0.5595413,13.27717,30.54915,-8.411623,890.5007
9.320744991,-140.3442,137.4244,3.232311,-0.5929542,-0.2057442,-1.481932,17.63357,26.93087,-10.435,890.5026
9.340763092,-73.36415,10.03363,3.476128,0.2760434,0.3489623,-1.869914,17.63357,26.93087,-10.435,890.5026
9.360780716,183.2287,32.53519,-6.03273,0.2241952,-0.4929879,-1.226771,8.862471,34.97175,-8.439154,890.5043
9.380798340,58.50291,-37.56811,-2.741202,-0.121642,0.04817034,-1.376476,8.862471,34.97175,-8.439154,890.5043
9.400816441,-41.8441,0.3479146,-6.459409,-0.4401411,0.0283709,-1.09256,8.862471,34.97175,-8.439154,890.5043
9.420833588,-119.9055,103.9378,2.683723,0.9944278,0.01343388,-0.3028286,17.69139,22.96744,-14.30145,890.5029
9.440851212,-256.5744,1926.21,31.2103,16.00426,2.122301,-6.440048,17.69139,22.96744,-14.30145,890.5029
9.460868836,-222.9612,1934.538,117.8262,5.98082,1.796033,-15.7849,37.5528,18.50054,-58.17257,890.5029
9.480886936,68.35292,7.848436,-14.74918,-2.038419,-0.6270006,-1.418265,37.5528,18.50054,-58.17257,890.5029
9.500904560,-276.3976,-128.6965,23.46911,-4.054732,3.253759,2.161599,37.5528,18.50054,-58.17257,890.4976
9.520922184,-149.948,80.66846,22.5548,0.0817892,-0.03377071,3.578273,5.112182,26.12186,-28.89753,890.4976
9.540939331,-688.9284,-141.2761,20.84808,2.950879,-3.319161,1.320938,5.112182,26.12186,-28.89753,890.4993
9.560957432,-369.4802,434.6695,38.89053,-2.84157,-1.28719,-6.240859,-20.32931,12.05066,8.343072,890.4993
9.580975056,356.4042,192.1132,-1.948797,-0.8601033,0.4483717,-2.127106,-20.32931,12.05066,8.343072,890.5011
9.600992680,-227.5168,20.19181,15.78888,1.937528,-3.302584,-0.6380982,-20.32931,12.05066,8.343072,890.5011
9.621009827,112.678,-85.8195,-7.373722,-0.6261566,0.8014137,0.6698849,-21.00428,8.429745,14.29835,890.4996
9.641027928,-0.227794,58.28502,-6.215592,-2.163138,2.86135,4.025472,-21.00428,8.429745,14.29835,890.4996
9.661045551,29.50693,86.33814,34.62373,-2.120289,-1.202994,-3.700197,-5.470046,47.38321,12.4271,890.5014
9.681063175,191.909,-16.12961,-29.37819,0.3798888,-0.7697653,0.4077114,-5.470046,47.38321,12.4271,890.5014
9.701081276,-128.832,210.1263,13.71644,-2.20301,-1.456202,1.1571,-5.470046,47.38321,12.4271,890.4981
9.721098900,251.7479,34.42509,3.963762,-0.5421319,-0.1126117,-3.204275,-21.05784,12.39619,17.35627,890.4981
9.741116047,-134.6189,2.119692,-2.070706,1.41908,0.832657,5.405493,-21.05784,12.39619,17.35627,890.4999
9.761133671,201.3281,-44.00557,2.866586,-1.389273,-2.507305,-3.860982,-10.39793,32.71311,15.32916,890.4999
9.781151771,479.4063,32.71237,1.952273,-0.09366103,-0.0209707,-0.18319,-10.39793,32.71311,15.32916,890.5017
9.801169395,-162.2605,-76.84249,-11.57956,-0.5001452,4.404361,8.942024,-10.39793,32.71311,15.32916,890.5017
9.821186542,269.5394,33.18484,0.9160511,-0.2764872,-0.8459462,-0.807025,-18.24698,22.75814,14.7969,890.5017
9.841204166,136.5643,196.6608,-5.17937,-0.7283322,0.7524359,1.142141,-18.24698,22.75814,14.7969,890.5017
9.861222267,-156.1658,1929.99,72.17153,13.99424,-5.872829,-15.82432,-4.96852,36.25778,7.301387,890.5001
9.881239891,-237.3669,1934.538,89.11681,3.552589,2.462641,-15.78668,-4.96852,36.25778,7.301387,890.5001
9.901257992,220.2894,-79.7364,-30.23155,2.07356,0.223037,3.325988,-4.96852,36.25778,7.301387,890.4948
9.921274662,-178.944,-48.96654,5.67048,0.4983716,0.7996879,-0.06977843,-9.665044,21.75187,-33.76833,890.4948
9.941292763,41.69633,-45.06863,-8.470899,-0.1584838,0.1992414,-0.9129956,-9.665044,21.75187,-33.76833,890.4966
9.961310387,95.50201,-39.69424,-1.887843,-0.9419848,0.2091856,-0.4872293,-0.6448126,16.45286,-17.90363,890.4966
9.981328487,-57.78881,-8.924383,9.083917,0.03011213,0.6417618,-0.3469025,-0.6448126,16.45286,-17.90363,890.4954
10.001346111,-21.89782,-19.79128,1.830364,-0.5620462,0.0009869456,-2.145858,-0.6448126,16.45286,-17.90363,890.4954
10.021363258,-125.877,80.55034,2.866586,0.9770749,1.274261,-1.005998,12.94394,28.79492,-12.15122,890.4972
10.041380882,287.5157,-143.4613,-12.00624,0.6014264,0.5061686,0.2049247,12.94394,28.79492,-12.15122,890.4972
10.061398983,-41.29004,-5.498949,-5.727959,-0.4929388,-0.4168536,0.07079718,15.10444,27.34286,-10.45648,890.4989
10.081416607,-26.08408,50.72543,3.232311,-0.3329114,0.559775,-1.640036,15.10444,27.34286,-10.45648,890.4989
10.101434231,-60.99006,91.4763,0.6722342,0.1306381,-0.3558818,-1.152483,13.64332,30.90978,-8.407384,890.4975
10.121451378,-19.31219,73.58135,-1.339255,0.1494358,-1.851089,-2.339259,13.64332,30.90978,-8.407384,890.4975
10.141469479,29.13756,-69.57821,1.708456,-0.2958061,0.8452293,-0.5655307,13.64332,30.90978,-8.407384,890.4975
10.161487103,-141.3292,28.10575,0.001737846,0.05752043,0.5645076,-1.15426,18.3618,28.32692,-10.86013,890.4975
10.181504726,-20.42032,102.6385,4.573304,-0.7910323,-0.5807896,-2.761538,18.3618,28.32692,-10.86013,890.4992
10.201522827,151.6471,95.72856,0.2455547,0.6584712,1.058078,-0.07537027,8.561448,33.5036,-7.139624,890.4992
10.221539974,73.27792,-49.91149,-13.34724,-0.06517526,-0.3667728,-0.8811691,8.561448,33.5036,-7.139624,890.4977
10.241557598,10.54566,-11.46393,-0.7297127,0.3762928,-0.7497222,-1.951661,8.561448,33.5036,-7.139624,890.4977
10.261575222,-100.8826,308.9914,12.98499,2.166272,-0.467211,-1.447784,18.06056,24.43914,-16.84432,890.4995
10.281593323,74.07824,1934.538,43.64496,14.20623,-0.6044169,-15.78005,18.06056,24.43914,-16.84432,890.4995
10.301610470,-157.828,1934.538,125.0188,-2.090879,0.5146078,-15.81977,41.36849,15.07543,-28.23027,890.4942
10.321628094,26.49037,-39.28083,-10.17762,0.9437538,2.550039,3.545737,41.36849,15.07543,-28.23027,890.4942
10.341645718,-874.909,-211.6747,49.25275,2.444776,-0.5422039,3.669091,41.36849,15.07543,-28.23027,890.4942
10.361663818,-324.5395,-14.41689,8.657237,-2.071464,-1.778464,-3.656021,0.3100984,20.00358,-6.814232,890.4942
10.381681442,-363.0161,50.31202,21.8843,1.438609,-3.175979,-1.649224,0.3100984,20.00358,-6.814232,890.4942
10.401698589,138.4727,-222.2463,4.999984,0.3546484,-2.7188,-1.654976,-23.23727,13.20195,8.755588,890.4977
10.421716213,201.0203,57.98972,-10.48239,-0.4831378,1.373923,1.246097,-23.23727,13.20195,8.755588,890.4977
10.441734314,-5.645301,114.8638,2.074181,0.3475878,-1.061538,1.070929,-23.23727,13.20195,8.755588,890.4944
10.461751938,146.9068,-76.78343,-9.202349,0.543416,0.6803384,-0.4658186,-22.15633,12.05356,16.03937,890.4944
10.481769562,-189.1633,20.95958,7.316244,0.9683816,0.3422655,4.982183,-22.15633,12.05356,16.03937,890.4944
10.501786709,13.4391,-45.30487,12.13163,-2.690232,-0.3874306,-3.416882,-5.419833,42.30545,11.9785,890.4944
10.521804810,203.3597,-47.7263,-29.31724,-0.342188,2.11632,3.458567,-5.419833,42.30545,11.9785,890.4979
10.541822434,104.7364,183.3725,12.00972,-4.003855,-1.229879,-6.269,-5.419833,42.30545,11.9785,890.4979
10.561840058,117.0489,21.90453,7.072427,-0.4123666,0.8812373,1.686694,-21.46806,16.00875,18.60629,890.5015
10.581857205,-469.8272,112.147,54.12908,3.236059,-4.575346,-1.293074,-21.46806,16.00875,18.60629,890.5015
10.601875305,305.6151,-0.597033,0.3674631,0.724516,-1.537701,-0.7430754,-11.11236,30.58756,14.44629,890.4983
10.621892929,612.1352,-3.963409,-19.68647,-0.1106718,0.7905776,2.056915,-11.11236,30.58756,14.44629,890.4983
10.641910553,-45.35316,0.5250923,12.00972,0.7768425,-1.401181,0.7954807,-11.11236,30.58756,14.44629,890.5001
10.661928654,407.9321,-68.63326,-8.958532,0.9306095,-0.23931,0.9490499,-17.59435,24.20696,16.92138,890.5001
10.679443836,86.637,226.8991,4.999984,0.3898423,0.9658043,0.6622224,-17.59435,24.20696,16.92138,890.5001
10.699461460,93.71671,1934.538,77.84028,5.820702,2.472272,-15.60876,-5.276903,32.67297,2.126522,890.5001
10.719479084,-242.2919,1934.538,109.6584,1.165789,-0.1455591,-15.81545,-5.276903,32.67297,2.126522,890.4947
10.739496231,210.7472,59.87961,-21.63701,1.629902,0.3703801,2.688647,-5.276903,32.67297,2.126522,890.4947
10.759514332,-174.019,-43.65121,0.001737846,0.07929309,-0.0850899,-0.4957759,-0.9986155,27.00545,-39.64785,890.4897
10.779531956,48.40665,36.31498,-0.7906669,0.008600377,1.174907,0.5193233,-0.9986155,27.00545,-39.64785,890.4897
10.799550056,63.18166,-31.24877,0.4284174,-0.2799866,-0.4171604,-0.6353608,0.7651511,16.42285,-16.58495,890.4914
10.819566727,-42.02879,-31.18971,0.9160511,-0.1076098,0.510708,-0.7595317,0.7651511,16.42285,-16.58495,890.4914
10.839584827,-102.3601,-10.10557,6.219068,-0.09426081,0.3973222,-1.638248,0.7651511,16.42285,-16.58495,890.495
10.859602451,-110.6711,127.9158,6.950519,0.790644,0.3970562,-1.436065,12.93159,29.89508,-11.77518,890.495
10.879620552,253.2869,-94.97368,-12.67674,0.4935882,0.258298,0.2334671,12.93159,29.89508,-11.77518,890.4935
10.899638176,-108.3317,-35.14668,-2.192614,0.1747311,-0.1894875,-0.1151768,15.83614,28.37173,-10.88256,890.4935
10.919655323,41.45008,99.39024,3.171357,0.1746773,0.525332,-1.83349,15.83614,28.37173,-10.88256,890.497
10.939672947,-101.9907,90.47229,-0.9125754,0.4174298,-0.7579788,-0.3524993,15.83614,28.37173,-10.88256,890.497
10.959691048,117.5414,-16.66114,3.171357,0.7570899,-0.06641474,-1.245309,13.64738,30.23498,-7.973773,890.4988
10.979708672,-13.77156,-133.4212,-1.70498,-0.3214123,0.5578583,-0.6109848,13.64738,30.23498,-7.973773,890.4988
10.999725819,-160.5983,52.73345,1.159868,0.1058236,-0.126942,-0.9979981,17.97716,30.17102,-11.29399,890.499
11.019743443,74.69386,51.84756,0.4284174,-0.6265908,-0.2562042,-2.35109,17.97716,30.17102,-11.29399,890.499
11.039761543,-49.53942,104.7646,-1.765934,0.4072537,0.3879362,-1.256608,17.97716,30.17102,-11.29399,890.5026
11.059779167,138.9652,-23.0986,-8.348989,1.025855,-0.01706041,0.01055417,8.879272,32.45778,-7.139598,890.5026
11.079796791,27.66006,-26.34686,-0.3639875,-0.3044552,-0.4708298,-1.401614,8.879272,32.45778,-7.139598,890.5045
11.099813938,-80.38229,378.4451,18.22705,3.228999,0.2797649,-1.297334,19.16069,25.83026,-17.70154,890.5045
11.119832039,115.0789,1934.538,96.85799,12.96389,6.142071,-15.33466,19.16069,25.83026,-17.70154,890.5045
11.139849663,-164.9693,1934.538,115.2052,-4.316042,0.3416934,-15.82789,25.12415,10.26365,-22.79042,890.5045
11.159867287,-72.44071,37.31899,-1.948797,0.5915383,0.6150261,2.715573,25.12415,10.26365,-22.79042,890.4993
11.179884434,-759.6638,-53.63222,33.09988,1.548691,-0.308717,0.3372615,25.12415,10.26365,-22.79042,890.4993
11.199902535,-71.08633,-111.274,8.657237,-1.060513,-1.387089,-0.7829439,-29.75916,28.12588,-7.496306,890.4993
11.219920158,-241.43,129.6286,19.26327,1.136122,-0.2973832,-0.03878109,-29.75916,28.12588,-7.496306,890.4993
11.239937782,241.8979,-131.0589,-5.727959,0.5385984,0.04296394,0.3516313,-23.91216,11.73734,10.86037,890.4993
11.259954929,-66.34602,-103.3601,-11.03098,-1.855328,3.813373,4.674408,-23.91216,11.73734,10.86037,890.4993
11.279973030,100.3655,263.3387,-29.68297,1.940464,0.3987915,3.744937,-23.91216,11.73734,10.86037,890.4993
11.299990654,288.0698,-64.97159,-2.314523,1.124086,0.5168702,3.787425,-22.57866,16.70484,17.72746,890.4979
11.320008278,-215.0812,18.77439,29.44263,2.187381,-1.19639,3.157563,-22.57866,16.70484,17.72746,890.4979
11.340026379,148.0765,-9.396857,-0.3030333,-0.704706,-1.002729,-1.468578,-6.780106,36.57967,11.51557,890.4979
11.360043526,36.95601,-113.8136,-14.993,-1.059155,3.026164,6.088221,-6.780106,36.57967,11.51557,890.4979
11.380061150,134.2865,56.92665,-5.301279,-0.6356221,-0.7310706,1.10018,-6.780106,36.57967,11.51557,890.4979
11.400078774,225.6453,41.57125,-1.70498,0.03470466,0.5600536,2.04095,-21.13364,19.2424,19.48875,890.4979
11.420096874,55.79416,307.515,37.54953,-0.290887,-2.689204,-3.020985,-21.13364,19.2424,19.48875,890.4997
11.440114021,114.8327,-123.9718,-10.90907,-0.6523216,-1.411844,-1.662155,-12.13998,28.77185,13.99684,890.4997
11.460131645,671.4815,139.2552,-11.3967,-0.2053923,2.651617,1.041561,-12.13998,28.77185,13.99684,890.4981
11.480149269,91.13107,120.2972,7.986741,-0.01421041,-1.418159,-0.6496155,-12.13998,28.77185,13.99684,890.4981
