Time (s),Gyroscope X (deg/s),Gyroscope Y (deg/s),Gyroscope Z (deg/s),Accelerometer X (g),Accelerometer Y (g),Accelerometer Z (g),Magnetometer X (uT),Magnetometer Y (uT),Magnetometer Z (uT),Barometer (hPa)
0.000000000,-0.06810828,0.03515413,-0.0009638127,0.04879861,-0.1658302,0.9721299,-34.48636,23.84736,-2.822949,890.5763
0.020018578,0.1165378,0.09412506,-0.001057066,0.04586611,-0.1639045,0.9706877,-34.48636,23.84736,-2.822949,890.5763
0.040036678,-0.0682879,-0.02397034,-0.06210427,0.04635218,-0.1634133,0.9726257,-33.7472,24.5735,-4.120562,890.5763
0.060055256,0.1162234,-0.02376188,-0.2450404,0.042434,-0.1566292,0.9746026,-33.7472,24.5735,-4.120562,890.5732
0.080072880,-0.006768398,0.153531,-0.001220563,0.04634468,-0.1527253,0.9712648,-34.11564,24.21125,-3.689437,890.5732
0.100091457,-0.1298765,0.09441994,-0.0619995,0.0473301,-0.1638939,0.9726247,-34.11564,24.21125,-3.689437,890.5763
0.120110035,-0.006657176,-0.201039,0.05994976,0.05026419,-0.1643652,0.9716634,-34.11564,24.21125,-3.689437,890.5763
0.140127659,0.05501873,-0.08280516,-0.000925485,0.0487966,-0.1667987,0.9745375,-34.48871,24.58499,-3.691764,890.5745
0.160146236,-0.006604686,0.03529869,0.1816908,0.04928782,-0.1643719,0.9706941,-34.48871,24.58499,-3.691764,890.5745
0.180164814,-0.006491408,0.03524718,0.1815217,0.04830507,-0.1629148,0.974085,-34.47949,23.85224,-4.129041,890.5745
0.200183392,0.1780773,-0.02378921,0.0595784,0.04831004,-0.163406,0.970216,-34.47949,23.85224,-4.129041,890.5763
0.220201016,0.1164927,-0.02387781,0.05952451,0.04781246,-0.1551462,0.9717323,-34.47949,23.85224,-4.129041,890.5763
0.240219593,0.1164901,-0.1420106,-0.2453194,0.045863,-0.16293,0.9726282,-34.85486,24.22436,-3.696003,890.5745
0.257735252,-0.1296877,0.212527,-0.1231591,0.04635244,-0.1643845,0.9731007,-34.85486,24.22436,-3.696003,890.5745
0.277753830,0.1165792,0.09424563,0.1206417,0.04684054,-0.1609831,0.9711979,-34.85832,24.59154,-3.695047,890.5745
0.297771931,-0.006993338,0.03533903,0.1814653,0.04683116,-0.15272,0.9731988,-34.85832,24.59154,-3.695047,890.5745
0.317790032,-0.1916636,-0.02353087,-0.1235317,0.04586674,-0.1600219,0.9673381,-34.85832,24.59154,-3.695047,890.5745
0.337808609,-0.1300643,-0.2008351,-0.1233364,0.04536689,-0.1609824,0.977474,-34.11564,24.21125,-3.689437,890.5745
0.357826710,0.0549885,0.3898348,0.05970206,0.04538634,-0.1624614,0.9620022,-34.11564,24.21125,-3.689437,890.5745
0.377844811,0.1164903,0.09435721,0.120583,0.04684557,-0.166814,0.9711497,-34.48407,23.84899,-3.258313,890.5745
0.397862911,-0.3145659,0.03545049,0.05942175,0.0488045,-0.1706913,0.9706404,-34.48407,23.84899,-3.258313,890.5745
0.417881489,-0.4377704,0.09449512,0.05940649,0.04830193,-0.163882,0.9774588,-34.48407,23.84899,-3.258313,890.5745
0.437900066,-0.06866811,-0.02347106,0.1811276,0.04584699,-0.1595134,0.9837681,-34.48754,24.21618,-3.257357,890.5728
0.457917690,0.05491883,-4.807228,-0.5503759,0.2712367,-0.1370181,0.9063674,-34.48754,24.21618,-3.257357,890.5728
0.477936268,-8.625406,-19.15862,-0.9161012,0.6999132,-0.1594927,0.8929763,-34.48871,24.58499,-3.691764,890.5709
0.497954846,-22.04605,-11.12656,2.009701,0.5894346,-0.2556964,0.978808,-34.48871,24.58499,-3.691764,890.5709
0.517972469,-46.97889,7.654269,2.924014,-0.1656437,-0.1655917,1.283096,-34.48871,24.58499,-3.691764,890.5709
0.537991047,-68.21799,-36.34485,5.17932,1.356095,-0.3377097,1.209912,-34.50715,26.05047,-2.817209,890.5709
0.558009625,-96.72146,-40.77429,11.27474,1.422959,-0.9927263,0.934628,-34.50715,26.05047,-2.817209,890.5709
0.578027725,-10.04135,6.650262,9.202299,0.6770834,-1.083049,1.44084,-32.3483,23.79634,0.6169214,890.5709
0.598045826,-100.2921,-28.48998,7.068901,-0.2775337,0.03653179,-1.802664,-32.3483,23.79634,0.6169214,890.5692
0.618064404,-17.55198,-1.854266,-2.318048,0.6443577,-0.3144366,0.4509263,-32.3483,23.79634,0.6169214,890.5692
0.638082504,-116.914,-19.21768,3.045923,0.6354363,-0.5800403,-0.08272533,-23.24139,20.09903,-2.732608,890.5709
0.658100605,-215.845,-32.97848,10.48234,0.4248389,-0.2611815,0.4685828,-23.24139,20.09903,-2.732608,890.5709
0.678118706,-229.081,65.94572,9.50707,1.343995,0.1249546,2.020991,-24.38507,16.82879,9.688067,890.5692
0.698137283,-52.8889,129.8478,20.84455,-0.08502631,-1.168616,-0.8762746,-24.38507,16.82879,9.688067,890.5692
0.718155861,182.2802,101.7356,1.765884,0.5016595,-0.5170347,-1.081202,-24.38507,16.82879,9.688067,890.5692
0.738173485,93.07598,-19.0405,-8.108699,0.7030776,0.158952,1.712085,-15.60353,12.32372,11.06054,890.5692
0.758192063,-249.5198,-11.30374,7.983214,0.650897,-1.067018,0.8379681,-15.60353,12.32372,11.06054,890.5692
0.778210640,132.1682,6.354966,-1.708506,1.193536,-1.66609,-0.9055383,-22.58434,18.17939,16.17642,890.5692
0.798228264,200.6874,5.350959,-7.499157,-0.02979238,-0.9588407,0.2150505,-22.58434,18.17939,16.17642,890.5692
0.818246842,-334.5377,93.23109,31.63345,2.41046,-1.774085,0.9084189,-6.234903,48.8567,14.66338,890.5692
0.838265419,29.72808,-115.1889,-3.476178,0.2063655,0.3803267,0.002685968,-6.234903,48.8567,14.66338,890.5692
0.858283043,298.0178,-17.68214,-21.03099,0.7274462,1.644988,2.773306,-6.234903,48.8567,14.66338,890.5692
0.878301620,110.7444,161.0901,11.45761,-0.3753438,-1.505796,-1.467889,-13.81755,10.87473,13.68493,890.5692
0.898319721,258.8025,34.23092,-6.09721,0.176182,-1.222697,-0.6010456,-13.81755,10.87473,13.68493,890.5692
0.918338299,-53.50453,-171.7677,-3.232362,0.3482578,1.242801,5.067008,-23.08513,30.41427,19.19038,890.5692
0.938356400,231.8996,156.7788,-3.232362,-0.8685111,2.728057,1.293836,-23.08513,30.41427,19.19038,890.5692
0.958374500,531.5862,154.948,-10.79068,-1.265984,-0.6149703,-2.425068,-23.08513,30.41427,19.19038,890.5692
0.978393078,86.85816,25.54921,3.533556,0.4530387,-0.7106612,1.750994,-12.8444,25.23644,13.73224,890.5692
0.998410702,-79.11456,-46.20774,3.655465,0.671755,-1.668417,0.1615219,-12.8444,25.23644,13.73224,890.5692
1.018429279,415.787,101.4994,-13.65553,0.8526482,1.823501,3.823035,-16.55236,28.51395,21.85594,890.5692
1.038447857,161.5951,1017.154,38.33842,3.948425,-2.111406,-2.03723,-16.55236,28.51395,21.85594,890.5692
1.058466434,50.16686,1934.521,37.97269,16.01847,-1.655321,-15.78331,-16.55236,28.51395,21.85594,890.5692
1.078484058,-121.1618,1934.521,67.65739,-4.879435,0.7419403,-15.82627,-10.53672,23.82723,-12.43647,890.5692
1.098502636,68.2047,160.7358,-19.0195,-1.262523,0.6391029,-2.119973,-10.53672,23.82723,-12.43647,890.5603
1.118521214,-200.2082,-33.0966,19.19879,1.107559,-1.317415,-0.3647203,2.031063,8.936979,-32.95197,890.5603
1.138538837,209.7986,68.83962,-10.42496,0.2435095,1.332569,2.223829,2.031063,8.936979,-32.95197,890.562
1.158557415,56.2,6.000611,4.691687,0.3036971,0.1624235,0.5176226,2.031063,8.936979,-32.95197,890.562
1.178575516,-160.9312,46.33806,10.42138,-0.07243592,0.1529882,-1.317486,6.820087,26.03443,-13.95489,890.562
1.198593617,15.13775,-35.3999,5.484091,-0.5466763,-0.7457164,-3.868983,6.820087,26.03443,-13.95489,890.562
1.218612194,6.642115,37.89259,-0.2456049,-0.7163946,-1.015992,-3.987679,14.03354,29.87053,-10.45924,890.5639
1.238630295,205.5508,62.46123,-4.634309,-0.0456857,0.5500512,-0.6619138,14.03354,29.87053,-10.45924,890.5639
1.258648872,-120.9771,75.86768,-0.1236965,-0.6241394,-0.6000967,-0.8620752,14.03354,29.87053,-10.45924,890.5639
1.278666496,124.1035,83.72255,2.558289,-0.04162867,1.211526,-1.26563,16.55457,30.56172,-10.87026,890.5639
1.298685074,107.2354,12.91054,-9.5716,0.2824174,-0.5732338,-0.8040528,16.55457,30.56172,-10.87026,890.5656
1.318703652,24.49526,25.90357,3.106877,-1.770419,-0.8051205,1.898608,13.64509,30.23335,-7.538409,890.5656
1.338721275,-219.3541,158.7278,12.49383,-0.5061423,-0.05598693,-3.509026,13.64509,30.23335,-7.538409,890.5674
1.358739853,-368.1509,208.1013,10.72615,-0.7418661,-0.8833683,-3.204978,13.64509,30.23335,-7.538409,890.5674
1.378758431,184.8658,11.0797,-0.3675133,0.2716093,0.8649359,-0.1356232,18.695,32.66863,-11.71625,890.5674
1.398777008,33.11403,107.6415,1.70493,0.03474837,0.6185167,-1.363069,18.695,32.66863,-11.71625,890.5674
1.418794632,97.38536,-59.79136,-10.30305,0.8592995,-0.3756273,-1.071709,9.631769,31.03713,-7.136699,890.5674
1.438813210,194.408,-12.60305,0.6077541,-0.7129338,0.1929825,-1.156271,9.631769,31.03713,-7.136699,890.5674
1.458831310,-135.8137,77.93475,4.935503,0.1105877,-0.55822,-0.1652853,9.631769,31.03713,-7.136699,890.5674
1.478849411,-61.50766,1926.252,8.958482,16.00315,4.987571,-7.5671,20.27287,26.9219,-20.301,890.5674
1.498867512,-151.1428,1934.521,81.37209,7.795451,2.508508,-15.77354,20.27287,26.9219,-20.301,890.5639
1.518886089,30.22058,261.6089,5.849816,-1.679061,1.668762,-1.519917,25.80116,12.79388,-15.56255,890.5639
1.538904190,-174.0441,-196.3363,27.06188,-2.530037,2.462059,1.686174,25.80116,12.79388,-15.56255,890.5639
1.558922291,-300.0627,-7.937366,24.07513,-0.04486316,-3.670699,-0.7997694,-30.18353,25.24286,-3.651547,890.5639
1.578940869,-537.448,-225.8069,24.80658,0.4537608,2.020609,4.562632,-30.18353,25.24286,-3.651547,890.5639
1.598959446,103.1107,169.2994,-14.14317,-0.4872652,-0.7591268,1.312481,-30.18353,25.24286,-3.651547,890.5639
1.618977070,174.3386,178.3354,7.068901,-1.280185,0.1247626,-2.937366,-23.6105,11.35773,12.72799,890.5639
1.638995648,-490.722,-276.4206,-21.33576,3.955036,-1.11687,6.998009,-23.6105,11.35773,12.72799,890.5639
1.659014225,170.6449,97.36523,-0.6113302,-2.037478,-1.204955,-2.631799,-21.84741,18.16465,16.61835,890.5656
1.679031849,96.95442,48.10984,13.95673,-0.5166829,0.5670303,2.924415,-21.84741,18.16465,16.61835,890.5656
1.699050427,-180.2619,253.8131,24.3799,-0.03211747,2.309597,3.566418,-21.84741,18.16465,16.61835,890.5626
1.719069004,150.4523,-61.38597,-23.83489,0.4749595,-1.381835,-0.1942005,-7.152121,37.01577,11.20243,890.5626
1.739086628,-501.9879,-135.8596,16.82158,5.484325,-2.444368,5.913301,-7.152121,37.01577,11.20243,890.5608
1.759105206,-23.89293,-54.83039,-9.632554,-0.02679055,-0.7407761,0.8294538,-21.19589,19.24303,19.61259,890.5608
1.779123306,-139.6921,-211.6326,-8.535378,-3.11437,2.59093,2.64978,-21.19589,19.24303,19.61259,890.562
1.799141884,232.7615,263.5579,5.910771,-0.05561482,0.2311697,-0.7157946,-21.19589,19.24303,19.61259,890.562
1.819159985,572.5254,75.74955,-5.67053,-0.6641425,-1.302979,-1.248227,-11.46359,28.82056,14.1274,890.562
1.839178086,199.6408,-23.94242,0.7296625,0.9993382,0.99932,3.535478,-11.46359,28.82056,14.1274,890.562
1.859196663,60.20156,113.0159,16.88253,-0.2940567,-0.8751968,-0.8078032,-17.22572,24.19971,17.11124,890.559
1.879214287,220.449,135.8128,8.714665,1.145601,-0.04800816,2.110271,-17.22572,24.19971,17.11124,890.559
1.899232864,489.4774,1774.293,11.64047,11.05772,-1.804798,2.057879,-17.22572,24.19971,17.11124,890.559
1.919251442,47.76592,1934.521,88.62565,10.83716,1.16982,-15.77307,-6.006112,32.32354,0.875102,890.559
1.939269066,173.723,774.4792,29.62196,-10.17768,0.5590676,-15.19875,-6.006112,32.32354,0.875102,890.559
1.959287643,-60.39954,-46.8574,-12.19263,-1.198485,0.2090479,-0.9865749,3.705027,25.89064,-41.91019,890.5519
1.979306221,-153.2359,97.77865,20.84455,0.6834475,-0.359224,-1.169691,3.705027,25.89064,-41.91019,890.5519
1.999323845,129.0285,43.62134,-4.268583,-0.01031259,-0.74348,-1.543091,3.705027,25.89064,-41.91019,890.5519
2.019342422,9.597118,-37.93945,-4.268583,-0.2810844,0.1878511,1.522402,0.3999294,15.75484,-16.21682,890.5519
2.039361000,-172.0125,29.80148,8.836574,-0.04631919,0.4300542,-1.698706,0.3999294,15.75484,-16.21682,890.5554
2.059379101,149.3442,-91.50617,3.411648,-0.4512842,0.2426617,-1.746887,12.56198,29.90163,-11.77847,890.5554
2.079397202,140.7254,-3.09451,-6.767706,-0.6358871,-0.7618288,-3.223461,12.56198,29.90163,-11.77847,890.5573
2.099415302,38.03903,-0.6140227,4.569778,0.1384159,1.032949,-0.04380666,12.56198,29.90163,-11.77847,890.5573
2.119433880,-67.10986,114.3152,5.910771,-0.2226054,0.1210724,-2.023065,15.16253,28.4482,-11.75915,890.559
2.139451981,-30.66481,210.7589,12.43287,-0.6384562,0.8475117,-1.788337,15.16253,28.4482,-11.75915,890.559
2.159470081,190.3449,-60.91349,-11.64404,-0.7246658,-0.9824541,-1.135121,12.89894,30.98084,-7.543062,890.559
2.179488659,140.4792,-47.09363,-0.1236965,0.7840045,1.624539,0.4118459,12.89894,30.98084,-7.543062,890.559
2.199506283,-34.91263,-48.98352,-4.573355,1.307917,1.05626,1.685584,12.89894,30.98084,-7.543062,890.5608
2.219524860,-165.9794,89.51035,8.714665,0.08381803,-0.9464791,-2.888512,18.04916,29.06838,-11.29632,890.5608
2.239543438,89.32066,-90.32499,-2.500911,0.6623027,0.6197693,-0.1070093,18.04916,29.06838,-11.29632,890.5576
2.259561062,98.18568,91.28213,-7.560111,-0.4935413,-0.1560099,-2.099124,8.551651,34.29754,-6.702187,890.5576
2.279579639,-28.69481,51.59433,5.484091,-0.537603,0.8796772,-0.7084908,8.551651,34.29754,-6.702187,890.5593
2.299598217,159.8714,-19.09956,-6.889615,0.08327787,0.3047235,-0.4258659,8.551651,34.29754,-6.702187,890.5593
2.319616795,-19.02948,630.1976,48.03014,5.490144,-0.8337966,-2.69306,18.79212,24.05095,-14.72409,890.5611
2.339634419,-48.27171,1934.402,65.46304,16.01877,-2.010519,-15.78625,18.79212,24.05095,-14.72409,890.5611
2.359652996,-124.5477,1933.753,75.03286,-5.811924,0.6727387,-15.82965,29.95686,14.98669,-48.17371,890.554
2.379671097,-15.95135,174.5556,-7.377248,-1.040262,0.264873,1.166152,29.95686,14.98669,-48.17371,890.554
2.399689198,-830.3012,-159.4243,41.87376,2.013092,-0.5539462,0.03129848,-15.60747,32.95931,-24.89688,890.5505
2.419707775,75.90002,11.55218,19.3207,-2.008803,0.2440123,-0.6341154,-15.60747,32.95931,-24.89688,890.5505
2.439725876,-126.3331,155.0661,9.263253,0.277036,-0.07221668,-0.7467772,-15.60747,32.95931,-24.89688,890.5505
2.459743977,113.0223,-10.12256,20.47883,-0.3366046,0.8111687,1.318209,-19.5965,12.40265,8.910348,890.5505
2.479762077,117.2085,-37.88039,-5.487668,-1.028925,1.54443,2.652213,-19.5965,12.40265,8.910348,890.5522
2.499780655,65.49595,197.7068,-6.401981,1.410715,-0.3309602,1.308688,-20.69843,8.792394,14.05327,890.5522
2.519798756,173.8461,-128.182,-3.598087,-0.2239915,0.4217547,1.431269,-20.69843,8.792394,14.05327,890.554
2.539816857,-336.8156,176.0912,37.05838,1.363875,-0.2681168,1.609564,-20.69843,8.792394,14.05327,890.554
2.559835434,157.2242,-62.09468,-0.06274223,1.41592,1.368896,1.055136,-5.84031,47.38931,12.54821,890.5558
2.579854012,264.8972,-42.54607,-19.75096,-0.2344194,3.954681,7.740493,-5.84031,47.38931,12.54821,890.5558
2.599871636,29.48183,-0.436845,11.45761,-3.635694,-1.603304,-8.598145,-20.36825,12.02303,15.74426,890.5558
2.619890213,207.0899,136.4624,6.215542,-1.350037,0.830003,-1.82009,-20.36825,12.02303,15.74426,890.5558
2.639908791,-470.9604,18.7574,58.87999,3.69897,-6.886409,-4.238976,-20.36825,12.02303,15.74426,890.5525
2.659926415,224.943,-85.71837,-25.23684,0.3591118,-2.198394,-1.670943,-10.05206,34.90757,15.89794,890.5525
2.679944992,491.1396,-22.17064,-3.232362,1.419777,1.847824,4.078092,-10.05206,34.90757,15.89794,890.5525
2.699963570,-110.019,-131.1349,-7.925836,-0.06494796,1.588936,5.405846,-17.5683,22.80848,14.49211,890.5525
2.719981194,418.2495,-72.31192,-6.219119,-0.2689463,-1.466031,-0.5362797,-17.5683,22.80848,14.49211,890.5525
2.739999771,181.2952,173.1973,14.07864,1.72986,1.137412,1.08943,-17.5683,22.80848,14.49211,890.5525
2.760017872,15.81494,1934.521,49.98067,9.243038,0.6696923,-15.58973,-13.29272,36.02999,9.40338,890.5525
2.780035973,-250.6279,1934.521,80.7016,0.001704196,0.2660047,-15.81554,-13.29272,36.02999,9.40338,890.5525
2.800054074,189.483,48.58231,-39.37821,1.441137,-0.08924027,3.11038,-3.391437,16.67132,-46.29005,890.5472
2.820072651,-181.8009,-84.30095,17.61398,0.9162734,-0.07208148,-0.6965433,-3.391437,16.67132,-46.29005,890.5472
2.840090752,76.45409,22.71437,3.838328,-0.8344171,0.1808158,-1.748068,-3.391437,16.67132,-46.29005,890.5472
2.860108853,211.153,13.2649,-7.377248,-0.7686106,0.4671584,-0.1434934,1.219522,8.898766,-19.21346,890.5472
2.880127430,-156.314,-16.32378,9.933749,0.7620925,0.7014979,-1.48339,1.219522,8.898766,-19.21346,890.549
2.900145054,-97.46021,-3.153569,6.520313,-0.2154412,-0.2287677,-2.043333,11.88202,30.65127,-12.6533,890.549
2.920163631,-228.7732,204.3215,8.531802,-0.07944137,0.07723932,-1.955362,11.88202,30.65127,-12.6533,890.549
2.940182209,284.1662,-86.5452,-11.46118,0.06469171,0.7861736,-0.7630129,11.88202,30.65127,-12.6533,890.5508
2.957697868,-82.37738,-2.267681,-3.293316,-0.07078541,-0.1832609,0.4315048,15.12348,25.56976,-10.89646,890.5508
2.977716446,-36.20544,38.8966,1.70493,0.09399658,0.07058464,-1.474197,15.12348,25.56976,-10.89646,890.5475
2.997734070,22.77151,-13.84329,-5.243851,0.2700049,-0.2103779,-0.486578,13.64667,30.97376,-9.153563,890.5475
3.017752647,1.593983,-29.31681,-2.683774,-0.129251,-0.2015792,1.118165,13.64667,30.97376,-9.153563,890.5492
3.037771225,-106.3868,-35.22272,2.192564,0.412491,0.6257627,-0.06374714,13.64667,30.97376,-9.153563,890.5492
3.057788849,-231.8513,230.6028,9.141345,-0.6372178,-0.6385221,-2.596811,16.58405,26.94782,-10.00894,890.5492
3.077807426,59.09344,60.45321,3.655465,0.237732,0.1832711,-2.421185,16.58405,26.94782,-10.00894,890.5492
3.097826004,127.3048,34.64434,-7.194386,0.4869286,0.1308673,0.1700701,9.218223,36.43393,-8.432044,890.5492
3.117843628,49.18186,-91.32899,-6.82866,0.2781467,-0.1874113,-0.7767147,9.218223,36.43393,-8.432044,890.5492
3.137862206,-105.2171,9.13075,3.533556,-0.6834038,-0.5840322,-2.014347,9.218223,36.43393,-8.432044,890.5478
3.157880783,-88.71832,146.9159,4.265007,0.8265254,0.4937001,-1.262202,15.15577,22.63554,-11.77485,890.5478
3.177898407,172.6764,1934.521,32.24299,14.37636,8.900867,4.313617,15.15577,22.63554,-11.77485,890.5478
3.197916985,-110.573,1934.521,90.63714,7.521945,2.278161,-15.77627,34.60415,22.14885,-54.51939,890.5478
3.217935085,75.16127,312.6361,7.861306,-2.274912,1.427608,-4.208852,34.60415,22.14885,-54.51939,890.5389
3.237953186,-45.3167,-17.91838,20.53978,-2.402853,1.912863,0.7457333,34.60415,22.14885,-54.51939,890.5389
3.257971764,-133.1049,18.69834,10.54329,0.1584621,1.397777,5.088495,22.91711,24.43535,-38.32162,890.5406
3.277989864,-340.3862,-171.7086,12.37192,-0.7391947,1.233027,2.965495,22.91711,24.43535,-38.32162,890.5406
3.298007965,77.62377,276.6691,-5.609576,-3.662349,-5.006544,-8.821104,-23.61282,14.9909,6.704496,890.5406
3.318026066,23.20245,28.38405,19.19879,-1.828592,-1.526182,-1.726061,-23.61282,14.9909,6.704496,890.5406
3.338044643,-291.3824,-125.4652,-27.79691,1.173485,1.359962,8.550327,-16.67993,7.684257,13.2154,890.5424
3.358062744,3.871799,34.76245,-17.49565,-0.599328,-0.4373883,-1.712866,-16.67993,7.684257,13.2154,890.5424
3.378080845,53.36812,1.275872,8.531802,-1.779123,1.21402,2.435617,-16.67993,7.684257,13.2154,890.5409
3.398099423,22.83307,259.9553,37.36315,-0.5522355,-1.117671,-2.613085,-18.17175,47.59997,14.5534,890.5409
3.418117046,108.0357,-278.2514,-31.69798,0.4113388,-0.4973856,0.4820457,-18.17175,47.59997,14.5534,890.5445
3.438135624,-449.7213,127.7807,28.15906,3.611273,-1.14387,2.171411,-14.92408,10.89603,13.23971,890.5445
3.458154202,-41.3767,-93.6323,-6.767706,-0.2200262,-1.283124,0.1248326,-14.92408,10.89603,13.23971,890.5445
3.478171826,-118.3299,-198.7577,0.5467999,-4.920189,3.709529,3.794731,-14.92408,10.89603,13.23971,890.5445
3.498190403,246.8593,275.0154,-4.268583,-0.06746358,0.9038146,0.1448519,-17.69288,34.3022,17.56963,890.5462
3.518208981,537.8657,75.0999,-11.64404,-0.7412294,-0.7456796,-3.430417,-17.69288,34.3022,17.56963,890.5462
3.538226605,266.0668,-14.552,9.568025,-0.1817688,1.256329,3.575121,-15.34836,22.77076,14.07644,890.548
3.558245182,136.0467,46.21994,6.946992,-0.4855929,-0.9570581,-1.628418,-15.34836,22.77076,14.07644,890.548
3.578263760,186.528,58.97674,4.02119,1.702254,-0.7618604,0.5861557,-15.34836,22.77076,14.07644,890.548
3.598281384,451.0624,1755.925,17.73589,11.45386,-1.050581,3.383733,-21.9721,31.13687,17.08751,890.548
3.618299961,47.76592,1934.521,69.18125,10.51817,0.9732388,-15.77566,-21.9721,31.13687,17.08751,890.5445
3.638318539,151.3758,759.5372,27.54952,-9.862841,0.4762236,-15.20188,-1.280487,15.86178,-36.38383,890.5445
3.658336163,-143.4474,-36.34485,-4.207629,-0.8489089,0.4327338,-0.8290753,-1.280487,15.86178,-36.38383,890.5394
3.678354740,-71.9733,41.55426,13.40814,-0.4401422,-1.296777,-2.210348,-1.280487,15.86178,-36.38383,890.5394
3.698372841,26.21902,43.26698,-3.598087,-0.3429625,-0.4536863,-1.503042,4.508543,7.749049,-21.79952,890.5394
3.718390942,-2.222897,-39.00252,-0.6113302,0.1102834,0.4020733,0.6451187,4.508543,7.749049,-21.79952,890.5394
3.738409043,-104.2321,12.61524,3.411648,0.0494803,-0.2262013,-1.226053,10.77548,30.67257,-13.09851,890.5394
3.758427620,81.00972,-50.04659,3.533556,-0.5904037,0.2504379,-1.902804,10.77548,30.67257,-13.09851,890.5413
3.778445721,71.96001,-49.63318,-9.815416,-0.7200279,-1.075734,-5.010937,10.77548,30.67257,-13.09851,890.5413
3.798463822,71.59064,53.36611,2.558289,0.05240283,0.9897563,-0.0197841,14.81776,25.57685,-11.33456,890.5413
3.818482399,-76.09799,134.7497,6.032679,-0.6216853,-0.4182402,-1.833553,14.81776,25.57685,-11.33456,890.5413
3.838500023,37.91591,144.8488,8.836574,-0.6860049,0.896533,-1.289983,15.07384,30.58632,-10.44803,890.5397
3.858518601,80.33253,-25.65514,-4.085721,0.05753542,-0.2737394,-0.1447305,15.07384,30.58632,-10.44803,890.5397
3.878537178,71.22127,-117.256,2.375427,0.7148295,0.703056,0.8842218,15.07384,30.58632,-10.44803,890.5416
3.898554802,-45.74764,45.86559,-0.855147,1.485796,0.8364356,-0.2085416,15.83979,26.58771,-8.399393,890.5416
3.918573379,-199.7772,60.92569,10.29947,0.5041124,-0.5978766,-2.277088,15.83979,26.58771,-8.399393,890.5433
3.938591957,126.6892,-31.85635,-6.706752,1.326678,0.4388201,0.3104163,13.22508,36.7345,-9.577223,890.5433
3.958609581,-9.241032,65.35513,-0.4284675,-0.5175392,0.4862145,-2.106922,13.22508,36.7345,-9.577223,890.5433
3.978628159,-31.03419,48.40514,4.386915,-0.03859364,0.6556181,-0.9504035,13.22508,36.7345,-9.577223,890.5433
3.998646736,125.6426,-24.82831,2.070655,0.1771241,0.773744,-0.3535805,13.7286,23.02298,-10.48038,890.545
4.018664360,33.29871,1047.746,57.53899,6.655769,-2.969866,-4.831498,13.7286,23.02298,-10.48038,890.545
4.038682938,4.302737,1934.521,111.9711,16.01675,0.3378714,-15.76681,33.04316,26.38417,-34.80503,890.545
4.058701515,-97.6449,1778.309,55.22273,-5.912713,-0.9089587,-15.84305,33.04316,26.38417,-34.80503,890.545
4.078719139,-85.76332,235.1504,-1.03801,-2.206124,0.9886507,-0.04252455,33.04316,26.38417,-34.80503,890.5364
4.098737717,-486.5357,28.79747,41.81281,1.108555,-3.511834,-2.532264,23.23167,16.75044,-14.26869,890.5364
4.118755817,-165.9794,-147.4353,-5.853393,0.3999468,0.8831728,3.766541,23.23167,16.75044,-14.26869,890.5364
4.138773918,-84.22426,188.0211,-3.476178,0.4781997,-1.844871,-0.5362051,-30.84085,18.73892,4.099893,890.5364
4.158792019,231.2224,-103.0227,4.569778,-0.9356969,-1.431374,-1.321607,-30.84085,18.73892,4.099893,890.5383
4.178810597,-223.6635,-330.0464,-20.78718,-1.898575,5.122238,6.83739,-14.9201,11.20689,11.93442,890.5383
4.198828697,-68.71049,166.0511,2.314472,-0.002981423,0.5703242,0.8307211,-14.9201,11.20689,11.93442,890.5383
4.218846798,261.6343,61.87064,-0.06274223,-0.5692407,-1.077636,-0.6503961,-14.9201,11.20689,11.93442,890.5383
4.238865376,-144.2478,180.5797,49.73685,1.372132,-4.202419,-0.4858898,-26.79912,39.84821,17.50322,890.5383
4.258882999,-80.34581,-106.271,-2.379003,-0.2969744,0.1326757,-0.7187851,-26.79912,39.84821,17.50322,890.5383
4.278901577,-202.486,-139.9347,0.9125252,-2.278583,6.775873,8.754861,-10.22699,16.2005,12.42515,890.535
4.298920155,-20.26073,-48.1567,6.946992,-1.907761,-1.719555,-4.918868,-10.22699,16.2005,12.42515,890.535
4.318937779,324.0588,78.93875,-1.76946,-0.748417,1.731647,1.303337,-10.22699,16.2005,12.42515,890.5367
4.338956356,27.51183,329.468,18.71115,-1.023404,-3.357911,-5.142831,-23.0782,29.6799,19.18846,890.5367
4.358974934,116.6544,-69.5952,-4.146675,-0.07255437,-1.655411,-1.570155,-23.0782,29.6799,19.18846,890.5385
4.378992558,643.3223,103.7436,9.019436,-0.9744794,2.628438,1.702856,-13.20329,24.14168,13.6639,890.5385
4.399011135,175.3236,53.9567,-8.352515,0.1309537,-0.6779947,-0.7720408,-13.20329,24.14168,13.6639,890.5385
4.419029713,205.1199,-105.1488,0.9125252,0.270636,-0.7222611,-0.6526585,-13.20329,24.14168,13.6639,890.5385
4.439047337,11.25931,429.9277,32.48681,2.75203,2.039446,3.196203,-19.44829,29.61217,20.09148,890.537
4.459065914,-37.37513,1934.343,103.9252,16.01726,-0.2578512,-15.77174,-19.44829,29.61217,20.09148,890.537
4.479083538,-140.554,1934.521,77.95866,-6.455907,-0.6932477,-15.84289,-7.930002,18.78817,-18.83319,890.5299
4.499102116,83.78003,218.5547,-25.23684,-1.591161,0.4561781,-0.9929552,-7.930002,18.78817,-18.83319,890.5299
4.519120693,-136.0599,-37.70321,14.68818,1.065558,0.4110716,-0.8119056,-7.930002,18.78817,-18.83319,890.5317
4.539138317,-87.91801,33.52221,0.4248915,-0.3035679,-0.3451723,-2.246986,3.048504,14.27388,-25.21592,890.5317
4.559156895,133.0917,7.063677,-3.963812,-0.5208867,0.3740226,0.4048141,3.048504,14.27388,-25.21592,890.5334
4.579175472,-85.33238,46.98771,9.689933,-0.1807556,0.899994,-0.7686054,10.05012,29.21695,-13.10891,890.5334
4.599193096,-160.3772,57.55931,10.17757,-0.1466064,-0.832603,-3.615831,10.05012,29.21695,-13.10891,890.537
4.619211674,-213.5672,157.7828,7.434626,-1.269684,-1.710782,-3.887844,10.05012,29.21695,-13.10891,890.537
4.639229775,251.7843,-7.996426,-10.36401,0.3728757,0.7853694,0.2582432,15.1102,26.9773,-10.8928,890.5388
4.659247875,-124.3015,37.18388,7.373672,0.7183964,-0.3746812,-0.5373178,15.1102,26.9773,-10.8928,890.5388
4.679265976,29.5434,80.53335,4.813595,1.002334,0.4074471,-1.076872,16.54535,31.29446,-10.43298,890.5388
4.699284554,-23.95449,125.4774,0.4248915,-0.6433875,-1.000894,-2.49113,16.54535,31.29446,-10.43298,890.5423
4.719302654,101.3254,-75.383,1.339205,1.23983,0.3379102,-0.992189,16.54535,31.29446,-10.43298,890.5423
4.739320755,-30.8495,-71.36697,-0.3065591,-0.1940069,0.1077834,-0.1486074,15.09135,27.33357,-7.968682,890.5411
4.759339333,-128.6109,11.84747,7.617489,-0.7156352,0.5712347,-2.042076,15.09135,27.33357,-7.968682,890.5411
4.779356957,75.59221,33.64033,-3.719995,-0.9623333,0.01112254,-1.327616,15.39611,35.59795,-10.43167,890.543
4.799375534,-27.77137,168.945,4.386915,-0.2858369,0.06551693,-2.244015,15.39611,35.59795,-10.43167,890.543
4.819393635,102.3104,85.78962,-0.9770554,0.7256699,0.2318024,-0.5114995,15.39611,35.59795,-10.43167,890.5447
4.839411736,93.81474,-39.47499,-6.341027,-0.1567615,-0.4634259,-1.89775,11.91253,25.2515,-8.811249,890.5447
4.859430313,2.763673,299.3478,10.96997,2.672116,-0.09883542,-1.27992,11.91253,25.2515,-8.811249,890.5447
4.879447937,128.5976,1934.521,83.68835,10.60918,5.991302,-15.33477,27.92001,25.35869,-30.93504,890.5447
4.899466515,-157.7915,1934.521,105.51,-3.737309,0.8579555,-15.82188,27.92001,25.35869,-30.93504,890.5411
4.919485092,4.548987,145.2032,-20.4824,1.558503,-0.1896034,1.050387,6.911803,20.67809,-21.74328,890.5411
4.939502716,-723.9826,-240.3945,36.57074,2.447425,1.267783,2.599982,6.911803,20.67809,-21.74328,890.5378
4.959521294,-157.6068,10.84347,34.07162,-3.125527,-1.571388,-4.382629,6.911803,20.67809,-21.74328,890.5378
4.979539871,-724.352,-42.25077,49.43208,5.019161,-5.19112,-1.35562,-37.75368,22.4866,0.1297369,890.5378
4.999557495,118.9323,76.16297,17.55303,-0.3457587,0.3455794,-0.1195567,-37.75368,22.4866,0.1297369,890.5378
5.019576073,186.528,-29.37587,-13.59458,0.057737,0.5417933,0.3403068,-16.35884,13.0647,12.79735,890.5378
5.039594650,48.68936,237.3946,9.080391,1.233367,-0.1600353,-0.5383404,-16.35884,13.0647,12.79735,890.5378
5.059612274,285.7668,-144.2461,-12.25359,0.9525384,-0.592146,2.92213,-16.35884,13.0647,12.79735,890.5397
5.079630852,-240.2854,234.5007,15.78535,0.2884018,0.524191,2.871405,-25.25569,32.96812,17.43631,890.5397
5.099649429,39.70123,87.73858,11.88428,-0.6010196,0.8456081,-1.203189,-25.25569,32.96812,17.43631,890.5414
5.119667053,175.1389,-110.1098,-29.93031,-0.3776778,0.8067746,2.167363,-9.539754,21.94156,12.01134,890.5414
5.139685631,226.0512,228.0633,3.716419,-2.428922,-0.417449,-3.661284,-9.539754,21.94156,12.01134,890.54
5.159703255,154.8233,-34.51402,3.350694,-0.2245315,0.3723428,-0.5673003,-9.539754,21.94156,12.01134,890.54
5.179721832,-339.7705,90.63248,19.13783,3.796349,-1.88404,4.508939,-22.70218,28.26093,20.49417,890.54
5.199739933,161.7798,-11.00845,-0.4284675,0.0425025,0.08088085,-0.5022418,-22.70218,28.26093,20.49417,890.54
5.219758034,769.0331,-72.7844,-17.19088,0.6835979,1.606724,2.682032,-12.46982,24.49412,14.10678,890.5417
5.239776611,-135.8137,-11.6581,13.77386,1.127347,-2.153081,-0.3773789,-12.46982,24.49412,14.10678,890.5417
5.259794712,150.3292,24.30897,7.007946,-1.0961,-1.900523,-2.983055,-12.46982,24.49412,14.10678,890.5417
5.279812813,114.3151,194.2814,-9.449692,0.5045498,0.8152406,1.314973,-17.287,28.53032,20.97865,890.5417
5.299830914,50.47467,1934.521,44.19002,10.09437,1.033617,-15.77885,-17.287,28.53032,20.97865,890.5453
5.319849491,-204.5791,1934.521,49.91972,3.305994,2.198911,-15.7896,-9.109928,24.17881,-14.97292,890.5453
5.339867592,145.5889,51.12186,-36.14764,1.710267,-0.4919299,3.550869,-9.109928,24.17881,-14.97292,890.5367
5.359885693,-158.1609,-122.5123,16.69967,0.1374634,0.2894737,-0.7736713,-9.109928,24.17881,-14.97292,890.5367
5.379903793,-48.33327,88.97882,8.592757,-0.3768365,0.04434539,-1.736228,4.102106,16.47768,-30.36305,890.5384
5.399921894,261.5728,59.56733,-7.377248,-0.1732978,0.7021003,0.5138947,4.102106,16.47768,-30.36305,890.5384
5.419940472,-152.4356,-30.97046,7.556535,0.6765671,0.7173979,0.1610041,9.021596,27.46219,-13.496,890.542
5.439958572,-174.7828,-12.48493,8.958482,-0.4644776,0.1971776,-2.963301,9.021596,27.46219,-13.496,890.542
5.459976673,-145.4174,140.3013,0.9734795,1.168338,1.430711,-0.006980695,9.021596,27.46219,-13.496,890.5437
5.479995251,312.5466,-52.23178,-13.28981,-0.1454564,0.7703627,-1.182635,14.78545,28.75749,-10.89091,890.5437
5.500012875,-90.0727,-65.93353,-3.537133,0.1340158,0.1476999,1.42911,14.78545,28.75749,-10.89091,890.5423
5.520031452,8.427429,-22.28876,-3.415224,-0.693942,-0.1012614,-2.130676,17.29033,30.91579,-10.86273,890.5423
5.540049553,-17.30573,104.3933,-2.622819,-0.1793107,-0.3878333,-2.311703,17.29033,30.91579,-10.86273,890.5441
5.560067654,14.95306,47.69643,-4.5124,-1.154491,-0.952062,1.095824,17.29033,30.91579,-10.86273,890.5441
5.580086231,-88.53364,-21.81629,3.28974,-0.3478693,0.178016,-1.112783,14.39647,28.44226,-6.665739,890.5476
5.600103855,-129.9652,103.4483,2.131609,-0.4203646,-0.1317552,-2.415626,14.39647,28.44226,-6.665739,890.5476
5.620122433,71.03658,134.3363,3.899282,-0.07677072,0.4530549,-0.7579839,18.00699,33.7822,-11.7194,890.5476
5.640141010,98.98599,13.20584,-4.573355,1.241996,0.3761114,-0.783161,18.00699,33.7822,-11.7194,890.5476
5.660158634,69.99001,44.62535,-3.719995,-0.3337872,-0.04090033,-1.707335,18.00699,33.7822,-11.7194,890.5476
5.677674771,-78.92987,37.53824,-0.6722844,-0.5306312,-0.1901673,-1.706264,11.14656,27.40188,-7.568337,890.548
5.697692871,-85.94801,115.6736,-2.866636,1.034709,0.2781432,0.1637571,11.14656,27.40188,-7.568337,890.548
5.717711449,135.8004,1934.521,17.37016,14.6736,9.141387,4.903487,22.87555,25.45318,-32.286,890.5497
5.737729073,-120.2999,1934.521,94.29439,7.962345,2.812136,-15.77053,22.87555,25.45318,-32.286,890.5497
5.757747650,44.99561,249.5609,8.470848,-2.722219,0.2178797,-4.085909,22.87555,25.45318,-32.286,890.5444
5.777766228,-171.1506,-88.90756,17.49207,-4.562424,2.236861,0.710523,32.74426,28.28913,-51.53395,890.5444
5.797783852,-223.6019,135.4584,25.47707,-0.4782541,-1.243336,-1.011898,32.74426,28.28913,-51.53395,890.5461
5.817802429,-516.8245,-226.6337,19.38165,-0.3816256,0.5419356,3.222211,-37.75008,23.53648,-2.417542,890.5461
5.837820053,194.3464,136.6987,-22.92057,-0.02190998,-0.7504062,-1.23544,-37.75008,23.53648,-2.417542,890.548
5.857838631,213.4308,88.80164,8.531802,-0.9992628,1.592075,1.499987,-37.75008,23.53648,-2.417542,890.548
5.877857208,-224.3407,-67.05565,-10.36401,1.793169,-2.440659,3.042687,-19.99797,13.86517,12.33161,890.5447
5.897874832,39.14716,54.78353,-2.988545,-1.070618,0.07700084,-2.808623,-19.99797,13.86517,12.33161,890.5447
5.917893410,-204.7638,-109.5192,8.34894,-1.518508,5.159159,7.801201,-23.79609,27.92154,18.30655,890.5464
5.937911987,173.0458,104.4523,-0.4284675,-0.2432278,0.5003601,-1.386141,-23.79609,27.92154,18.30655,890.5464
5.957929611,54.04531,-50.57813,-25.11493,0.4431209,-1.004094,0.4223868,-9.583634,26.59257,12.02346,890.55
5.977948189,-355.5921,-16.26472,12.06715,2.560512,-3.228606,-0.5351254,-9.583634,26.59257,12.02346,890.55
5.997965813,-91.24239,8.540157,12.43287,0.1562714,-1.288002,-0.6630017,-9.583634,26.59257,12.02346,890.5467
6.017984390,-269.1583,-209.5656,3.716419,-3.064237,3.882131,3.970829,-22.67851,25.75183,20.48763,890.5467
6.038002968,190.2833,169.5947,18.89402,-0.5449828,-0.6718369,-2.453325,-22.67851,25.75183,20.48763,890.5484
6.058020592,553.1332,-5.634057,-15.91084,0.04688669,-1.190566,-0.4006759,-13.59251,25.98253,14.10076,890.5484
6.078039169,195.8855,4.583189,6.276496,-0.818756,1.296943,2.413103,-13.59251,25.98253,14.10076,890.5503
6.098057747,166.9511,24.07273,8.531802,-0.735967,-0.7956474,-1.63508,-13.59251,25.98253,14.10076,890.5503
6.118075371,168.6748,151.9359,7.92226,0.3273965,-0.5730493,1.262362,-16.53622,27.04684,21.41675,890.5503
6.138093948,564.5838,1934.521,13.95673,12.70995,7.009258,6.29545,-16.53622,27.04684,21.41675,890.5503
6.158111572,23.81808,1934.521,81.61591,10.5463,1.230434,-15.77586,-8.408181,27.40427,-13.65181,890.5452
6.178130150,142.0798,163.2163,8.227032,-6.210095,0.7247527,-11.43843,-8.408181,27.40427,-13.65181,890.5452
6.198148727,-141.8468,-58.7283,-2.622819,-0.3627297,0.5529991,-0.8005298,-8.408181,27.40427,-13.65181,890.5434
6.218166351,-90.25739,101.3222,10.90902,0.002778991,-1.384392,-2.652275,10.01928,7.038933,-37.61281,890.5434
6.238184929,54.90718,90.33718,-4.024766,-0.6130183,-0.6359044,-1.149308,10.01928,7.038933,-37.61281,890.5452
6.258202553,-62.98516,-39.47499,6.154588,-0.1694515,0.5332704,0.690294,6.83454,24.25807,-13.52415,890.5452
6.278221130,-128.2415,15.74538,1.70493,-0.3490818,-0.4735883,-2.519213,6.83454,24.25807,-13.52415,890.5419
6.298239708,133.7073,-64.98858,2.375427,-0.1937142,0.694092,0.4248741,6.83454,24.25807,-13.52415,890.5419
6.318257332,174.277,-19.92639,-3.598087,-0.8708947,-0.7124102,-4.162931,14.04623,28.7706,-10.89748,890.5437
6.338275910,52.01374,-4.452872,2.375427,-0.2347353,0.5861545,0.8890955,14.04623,28.7706,-10.89748,890.5437
6.358294010,-104.4168,159.0231,4.082144,-0.6610848,-0.3722531,-2.859424,16.92647,30.55678,-11.30234,890.5455
6.378312111,26.09589,103.7436,3.045923,-0.8106885,0.8560235,-1.633704,16.92647,30.55678,-11.30234,890.5455
6.398330212,118.0704,-62.9215,-7.803928,0.6325128,-0.5085336,0.6889077,16.92647,30.55678,-11.30234,890.5473
6.418348312,50.28999,-96.93962,3.960236,-0.8580769,0.590483,-0.2127925,13.64515,29.49411,-6.23423,890.5473
6.438366890,-108.603,93.76262,1.095388,0.8957959,0.8920548,-0.1905299,13.64515,29.49411,-6.23423,890.5473
6.458384991,-214.1829,131.2652,13.591,0.276943,-1.484501,-3.385647,18.31388,33.4063,-10.8469,890.5458
6.478403092,184.4349,-92.74641,-3.841904,0.1612923,0.2564268,0.1836583,18.31388,33.4063,-10.8469,890.5458
6.498421192,15.99963,79.29311,-5.792439,-0.6199286,0.417496,-1.854164,18.31388,33.4063,-10.8469,890.5458
6.518439293,-99.06084,67.12691,1.400159,0.02908615,0.1770024,-1.216012,10.38026,29.55203,-6.263231,890.5458
6.538457871,91.53692,52.83458,6.154588,0.2364956,1.212877,0.3782873,10.38026,29.55203,-6.263231,890.5458
6.558475971,268.2215,1635.74,45.16529,9.217505,-5.661225,-6.751972,20.31926,25.84589,-27.14531,890.5458
6.578494072,30.5284,1934.521,127.0268,14.86818,2.584324,-15.74489,20.31926,25.84589,-27.14531,890.5458
6.598512173,-7.948217,1314.517,46.62819,-7.476181,-0.03872874,-15.70189,20.31926,25.84589,-27.14531,890.5458
6.618530750,-63.16986,188.5527,-3.598087,-1.069826,-1.353614,-0.784144,54.12112,21.75,-40.60031,890.5355
6.638548851,-406.4428,160.0271,37.72887,-0.2609119,-1.638827,-1.840162,54.12112,21.75,-40.60031,890.5355
6.658566952,-179.3384,-253.1513,1.339205,-0.8027686,0.948445,4.032561,-22.88383,20.39195,-0.9870715,890.5355
6.678585053,37.23872,499.4404,-10.42496,-1.47318,2.142277,1.365431,-22.88383,20.39195,-0.9870715,890.5355
6.698603153,21.10932,-65.22482,28.28097,-1.848031,0.02017051,-0.4461053,-22.88383,20.39195,-0.9870715,890.5389
6.718621731,-47.10202,-143.4192,-30.72271,-1.159168,5.462343,7.078671,-23.63731,14.23423,12.67329,890.5389
6.738639832,-64.95517,155.0661,-0.855147,-2.850454,-0.7766083,-4.87476,-23.63731,14.23423,12.67329,890.5408
6.758657932,106.8044,-2.917332,11.3357,1.112193,0.1730554,2.92798,-23.01588,23.56342,18.30179,890.5408
6.778676033,-19.46042,134.1001,39.98418,0.8990955,-2.34032,-0.6564398,-23.01588,23.56342,18.30179,890.5377
6.798694134,89.81316,-55.06663,-19.62905,-1.185604,-1.322229,-2.934572,-8.941256,30.56,11.60447,890.5377
6.818712712,-631.3925,-354.3788,-8.474424,2.89439,2.162831,9.644324,-8.941256,30.56,11.60447,890.5377
6.838730335,15.69181,-131.8436,-14.44794,2.363422,1.389668,2.873215,-8.941256,30.56,11.60447,890.5377
6.858748913,141.341,-29.67116,0.851571,-2.379156,2.882316,3.16747,-21.54772,23.16025,20.92615,890.5377
6.878767490,30.65152,254.699,34.55925,-3.396082,-2.647165,-7.529209,-21.54772,23.16025,20.92615,890.5377
6.898785114,297.5253,81.71454,-3.110453,0.352693,-1.198213,-1.508566,-13.6035,27.3917,13.66906,890.5395
6.918803692,478.2731,71.61541,4.204052,-1.469688,1.437386,1.815664,-13.6035,27.3917,13.66906,890.5395
6.938821316,104.3419,100.4954,0.4248915,-1.675359,-0.6274456,-1.758739,-13.6035,27.3917,13.66906,890.538
6.958839893,287.9215,-59.90948,-6.706752,1.386012,-0.328268,1.947312,-16.51143,24.90818,20.54044,890.538
6.978858471,67.7122,895.9641,50.71212,6.61129,-3.066528,-3.929976,-16.51143,24.90818,20.54044,890.5398
6.998876095,29.29715,1934.521,86.06557,15.81715,0.5583628,-15.76558,-5.934198,30.21833,-8.957269,890.5398
7.018894672,-6.286027,1833.529,62.7201,-9.888192,-1.559791,-15.86039,-5.934198,30.21833,-8.957269,890.5294
7.038912296,-5.608839,87.08893,-13.04599,-2.323201,1.120006,-1.576158,-5.934198,30.21833,-8.957269,890.5294
7.058930874,-64.52423,10.01664,8.836574,0.5145071,-0.5354868,-0.7711571,19.09273,9.786617,-46.10778,890.5294
7.078949451,-82.19269,69.54833,6.032679,0.005008321,-0.2167399,-1.23722,19.09273,9.786617,-46.10778,890.5294
7.098967075,34.83778,-6.519945,1.217296,-0.1871184,0.08892387,0.2416131,3.240986,20.71678,-14.87193,890.5313
7.118985653,-63.53923,41.90862,2.192564,-0.003565445,0.2189451,-1.327362,3.240986,20.71678,-14.87193,890.5313
7.139003277,-63.90861,72.32412,10.78711,-0.7438321,-0.9849069,-3.537724,3.240986,20.71678,-14.87193,890.5347
7.159021854,-24.50855,49.94068,1.339205,-1.253878,-1.324985,-4.308775,13.67315,29.14434,-10.8998,890.5347
7.179040432,148.9748,-5.752175,-6.036256,0.3457006,0.7486747,0.5341987,13.67315,29.14434,-10.8998,890.5333
7.199058056,-139.8153,60.15792,8.34894,0.6591515,-0.324572,-1.315377,16.92994,30.1896,-11.3033,890.5333
7.219076634,50.90561,110.4173,11.39665,-0.109513,0.9586784,-1.127825,16.92994,30.1896,-11.3033,890.5369
7.239094257,39.27029,65.70949,-3.719995,-0.6115885,-1.113197,-1.604002,16.92994,30.1896,-11.3033,890.5369
7.259112835,80.64034,-139.1079,-2.074231,0.4959694,0.5777898,0.0554356,13.26744,30.60384,-6.670008,890.5403
7.279131413,7.565554,-45.08562,-3.232362,1.133724,0.6989822,0.8632239,13.26744,30.60384,-6.670008,890.5403
7.299149036,-171.5816,62.6384,13.28623,0.02367074,-0.2465311,-2.122958,18.03007,31.58072,-12.16051,890.5389
7.319167614,117.0238,-100.0107,-4.146675,-0.01670326,0.2701274,0.247974,18.03007,31.58072,-12.16051,890.5389
7.339185238,-66.74048,160.5586,-3.049499,-0.282586,0.1106135,-3.378466,18.03007,31.58072,-12.16051,890.5406
7.359203816,87.90472,85.9668,2.924014,0.4128862,0.5169641,-0.7366584,9.992737,31.70212,-6.696298,890.5406
7.379222393,103.8494,-39.06158,-4.390492,0.2177471,0.2033547,-0.8195559,9.992737,31.70212,-6.696298,890.5425
7.399240017,20.43213,532.6317,32.85254,3.71534,-0.1426359,-2.259801,20.28555,25.82197,-20.73924,890.5425
7.419258595,-64.21642,1934.343,47.78632,15.94414,-1.083775,-15.75416,20.28555,25.82197,-20.73924,890.5425
7.439276219,-114.4515,1934.521,79.48251,-5.63218,0.8102551,-15.82797,20.28555,25.82197,-20.73924,890.5374
7.459294796,-5.362588,220.0312,-3.963812,0.1827011,0.3932356,0.9979364,30.16682,13.08022,-14.65201,890.5374
7.479313374,-714.1942,20.70636,61.44006,0.3004659,-1.509952,-0.0957814,30.16682,13.08022,-14.65201,890.5356
7.499330998,-141.6621,-89.49816,14.07864,-0.8055965,0.03395386,0.8654144,-25.04805,22.27262,-2.742896,890.5356
7.519349575,-141.9084,221.6849,32.54776,0.7488552,-3.755288,-5.703139,-25.04805,22.27262,-2.742896,890.5374
7.539367199,208.4443,129.4934,8.34894,0.9555954,-0.2470556,-1.589219,-24.29851,12.4713,12.72484,890.5374
7.559385777,-3.761961,-180.6856,-23.65203,-1.50262,1.221899,2.128771,-24.29851,12.4713,12.72484,890.5374
7.579404354,70.79033,314.0536,-8.047745,1.412335,0.4362707,2.700134,-24.29851,12.4713,12.72484,890.5374
7.599421978,157.3473,44.15287,1.461113,-0.1255702,-0.6255023,-0.45787,-22.22853,18.90232,17.48771,890.5374
7.619440556,-438.5785,-12.6621,34.01067,4.030044,-3.163258,3.713988,-22.22853,18.90232,17.48771,890.5374
7.639458180,74.11471,-41.01053,1.765884,-1.802741,-0.3239508,-4.212759,-7.502118,35.18802,10.759,890.5377
7.659476757,82.73347,-95.34502,-29.56458,-0.952406,4.007893,6.87062,-7.502118,35.18802,10.759,890.5377
7.679495335,121.9488,145.9119,-5.487668,0.2892279,-0.79601,1.462342,-7.502118,35.18802,10.759,890.5377
7.699512959,190.2217,76.51733,6.946992,-0.8374039,0.04609362,-0.7733029,-20.83092,19.97247,19.18242,890.5377
7.719531536,-243.856,211.5267,13.89577,0.8237097,0.3050297,2.515144,-20.83092,19.97247,19.18242,890.5395
7.739549160,293.8931,0.8624581,-10.30305,-1.620762,-0.2281438,-2.756763,-12.50389,28.10477,14.11619,890.5395
7.759567738,566.9232,-0.6140227,-7.011523,0.681511,0.2544025,3.357331,-12.50389,28.10477,14.11619,890.5363
7.779585362,-71.66549,-8.173604,0.3639373,-0.3303444,-3.204336,-1.513706,-12.50389,28.10477,14.11619,890.5363
7.799603939,234.3006,-17.7412,2.131609,0.319099,-0.5035608,-0.4598716,-16.86154,24.55894,17.48865,890.538
7.819622517,140.4792,210.0502,18.6502,0.8680748,0.7841563,0.6012831,-16.86154,24.55894,17.48865,890.538
7.839640141,-21.24574,1934.521,66.92595,10.88008,0.4351507,-15.57708,-4.528058,33.03633,-0.3537493,890.5397
7.859658718,-210.2429,1934.521,96.00111,-2.260227,-0.344914,-15.8274,-4.528058,33.03633,-0.3537493,890.5397
7.879676342,183.2652,198.1793,-34.0752,0.2360382,0.2750092,1.030452,-4.528058,33.03633,-0.3537493,890.5327
7.899694920,-130.9502,-52.70426,16.15108,0.5896882,0.2152605,0.006819139,16.52087,11.58524,-40.52805,890.5327
7.919713497,-114.6977,86.85269,12.00619,-0.1980728,0.1299201,-1.694401,16.52087,11.58524,-40.52805,890.5344
7.939731121,188.9289,27.38005,-11.21736,-0.1839611,0.3367261,-0.128806,-0.649588,15.77179,-15.79076,890.5344
7.959749699,-70.4958,-1.972385,6.337451,0.2265566,1.429424,-0.05475168,-0.649588,15.77179,-15.79076,890.533
7.979767323,-167.8262,46.21994,13.53005,0.3695053,0.01899102,-2.970483,-0.649588,15.77179,-15.79076,890.533
7.999785900,-221.5088,173.906,10.17757,0.3340757,0.08011039,-1.149227,13.66852,29.88034,-11.33325,890.5347
8.019803524,270.9303,-78.92656,-11.40023,0.02813028,1.037973,-0.1953112,13.66852,29.88034,-11.33325,890.5347
8.039822102,-105.1555,-4.452872,2.558289,0.3049311,-0.08212477,0.06099094,15.83267,28.73891,-10.88161,890.5333
8.059840679,77.2544,-68.70931,-0.855147,0.02148863,0.2745341,-0.2291912,15.83267,28.73891,-10.88161,890.5333
8.079858303,-64.77048,133.9229,2.984969,-0.1606966,-0.4853501,-2.276222,15.83267,28.73891,-10.88161,890.535
8.099876881,40.19373,14.62326,-4.5124,-0.05940349,-0.6842724,-1.403129,13.27202,30.60709,-7.540736,890.535
8.119894505,-60.58422,-26.18667,1.70493,-0.8577186,-0.1718226,-1.212387,13.27202,30.60709,-7.540736,890.5368
8.139913082,-79.48394,71.37917,9.50707,-0.3543659,0.229426,-1.859754,18.35135,30.16772,-12.16144,890.5368
8.159931660,60.32469,26.84851,-2.622819,-1.039921,0.4913853,-0.5344642,18.35135,30.16772,-12.16144,890.5386
8.179949284,11.99806,118.036,-2.683774,0.6773993,0.187628,-0.994158,18.35135,30.16772,-12.16144,890.5386
8.199967861,110.5598,21.47412,0.9734795,0.669513,0.00174754,-0.8034418,8.567799,32.83043,-7.141377,890.5389
8.219985485,-28.75637,54.01576,-3.293316,0.07677689,-0.5335017,-2.187497,8.567799,32.83043,-7.141377,890.5389
8.240004063,-29.49512,163.3344,0.4248915,1.145875,-0.8165702,-1.306394,18.41035,25.83548,-15.59348,890.5389
8.260021687,-86.25582,1934.521,30.59723,15.63618,-5.535442,-15.81659,18.41035,25.83548,-15.59348,890.5389
8.280040264,-245.0873,1934.521,120.6266,1.674788,-0.3804061,-15.81587,18.41035,25.83548,-15.59348,890.5353
8.300058842,87.96629,44.56629,-20.3605,2.150293,-0.4481442,2.566519,25.5561,13.56651,-40.44203,890.5353
8.320076466,-503.0961,-246.95,22.79509,-2.835073,3.746383,3.292585,25.5561,13.56651,-40.44203,890.532
8.340095043,-279.8701,255.9983,37.54601,1.028903,0.02906761,2.787401,-26.18421,33.11576,-16.84292,890.532
8.360112667,-871.1172,-314.9863,46.50628,4.980543,-2.065797,5.114886,-26.18421,33.11576,-16.84292,890.532
8.380131245,-10.16447,302.4779,14.13959,-2.30973,-1.248601,-4.665922,-20.70547,11.00525,11.44682,890.5356
8.397646904,148.9748,137.8208,14.68818,1.35068,-0.4797001,0.09949072,-20.70547,11.00525,11.44682,890.5356
8.417665482,-408.9669,1.275872,-0.1846507,2.914415,-1.894615,1.373208,-20.70547,11.00525,11.44682,890.5374
8.437683582,41.11716,-22.11158,-13.04599,0.7210584,-1.263945,1.167481,-21.79319,13.15134,15.29918,890.5374
8.457701683,-157.7915,-114.5393,-3.049499,-0.1795042,0.8749239,3.587911,-21.79319,13.15134,15.29918,890.5344
8.477719784,-172.6281,116.2642,27.06188,-0.6177649,0.5124496,0.3931083,-21.79319,13.15134,15.29918,890.5344
8.497737885,313.8394,-18.80427,-21.76244,1.071387,-0.4327328,1.075896,-5.063812,43.45979,12.48238,890.5378
8.517756462,-239.1773,196.2304,38.887,2.170658,-4.410537,-2.322495,-5.063812,43.45979,12.48238,890.5378
8.537774563,75.28439,-3.035451,-1.098964,-1.188966,-0.3194852,-1.632499,-20.78188,15.26352,18.29942,890.5397
8.557792664,-235.4835,-106.0347,7.92226,-2.427469,2.949882,5.133192,-20.78188,15.26352,18.29942,890.5397
8.577810764,139.8636,118.036,28.40288,-4.605968,-1.515789,-11.08064,-10.38419,31.67554,14.58011,890.5414
8.597828865,510.2856,60.39415,7.312718,-0.2157053,-0.194435,0.6498273,-10.38419,31.67554,14.58011,890.5414
8.617846966,121.8873,-208.03,1.643976,-0.9006857,1.838058,4.360422,-10.38419,31.67554,14.58011,890.5414
8.637865544,158.0861,-45.9715,5.849816,-0.7064909,-0.2557022,-1.322777,-17.94655,23.48658,14.92594,890.5414
8.657883644,135.1232,174.7328,4.691687,0.3218121,-0.7284345,0.3049759,-17.94655,23.48658,14.92594,890.54
8.677901745,329.9688,1934.521,5.545045,15.21648,8.254628,9.816839,-3.861192,36.60669,6.939024,890.54
8.697919846,15.99963,1934.521,63.51251,10.95018,1.037291,-15.77625,-3.861192,36.60669,6.939024,890.54
8.717937946,160.2408,-5.929353,-8.108699,-5.088636,0.5248564,-8.593585,-3.861192,36.60669,6.939024,890.54
8.737956047,-162.7781,-110.2279,-1.03801,0.3866647,0.07060943,-0.1437881,-9.257249,17.76795,-33.8998,890.5382
8.757974148,-175.5216,94.82568,19.99119,-0.7049266,-0.93972,-2.988899,-9.257249,17.76795,-33.8998,890.5382
8.777992726,166.0276,-43.60913,-16.88611,0.2649525,-0.3936116,0.201776,-1.364997,14.69287,-18.35018,890.54
8.798010826,-36.63638,-54.77133,2.314472,0.05207432,0.7302208,1.694086,-1.364997,14.69287,-18.35018,890.54
8.818028927,-193.1285,57.79555,13.591,0.09738424,-0.07458601,-1.756078,-1.364997,14.69287,-18.35018,890.5384
8.838047028,142.6954,-144.3051,-0.9161012,-0.3626111,0.4326534,0.01686877,12.94081,29.16233,-12.21246,890.5384
8.858065129,181.603,25.96263,-6.341027,-0.5927728,-0.4503431,-4.783625,12.94081,29.16233,-12.21246,890.5403
8.878083706,128.7823,-12.30775,-1.220872,-0.1298144,0.6718618,0.9650034,15.10673,27.34448,-10.89184,890.5403
8.898101330,-44.02389,46.69242,-2.805682,-0.6229399,-0.2717223,-1.288357,15.10673,27.34448,-10.89184,890.5438
8.918119907,-84.83988,175.1462,6.703176,-0.4858422,0.6413197,-2.157718,15.10673,27.34448,-10.89184,890.5438
8.938138008,95.72318,-98.06174,-9.083966,0.6676974,-0.2792182,0.5281033,13.27313,30.97753,-8.410507,890.5456
8.958156109,64.14157,-46.62116,3.228786,-0.3798375,0.3428983,0.1837142,13.27313,30.97753,-8.410507,890.5456
8.978174686,-108.2337,68.24903,5.057412,0.5990919,0.9041594,0.2396161,17.68361,28.40014,-10.86599,890.5456
8.998192310,-170.2887,27.55723,1.400159,0.0677225,-1.007768,-2.872642,17.68361,28.40014,-10.86599,890.5456
9.018210888,69.00501,-16.73719,-4.695263,0.281471,-0.2911589,-0.6191025,17.68361,28.40014,-10.86599,890.5474
9.038228512,76.88503,40.25496,2.924014,-0.7873113,0.3992922,-2.063523,8.921781,34.96904,-8.003242,890.5474
9.058247089,-64.27798,78.34816,-3.049499,-0.1720712,0.2246916,-1.430241,8.921781,34.96904,-8.003242,890.5492
9.078265190,94.8613,-33.56907,-0.3675133,0.7155028,0.4246099,0.5133019,16.62919,24.08432,-13.43715,890.5492
9.098283291,191.1452,1497.246,54.49128,9.058521,-4.407913,-6.711634,16.62919,24.08432,-13.43715,890.5509
9.118301868,20.4937,1934.521,123.8572,15.15952,1.980942,-15.75288,16.62919,24.08432,-13.43715,890.5509
9.138319492,-39.4067,1366.784,45.59197,-6.466242,0.561366,-15.44411,36.13694,18.52637,-58.37174,890.5406
9.158338070,-106.1405,161.2083,-1.403735,-1.574363,-0.9280475,-0.9753817,36.13694,18.52637,-58.37174,890.5406
9.178355694,-443.8729,187.1352,40.47181,0.7440228,-1.365573,2.078344,8.026053,26.82298,-33.7211,890.5406
9.198374271,-158.5918,-244.1743,9.324207,-0.4823453,2.704501,4.18044,8.026053,26.82298,-33.7211,890.5441
9.218391895,78.60877,209.6368,-7.864882,-1.58278,-0.4261751,0.4157693,8.026053,26.82298,-33.7211,890.5441
9.238410473,263.7274,166.937,13.77386,0.4618807,-0.08297534,-0.8187778,-19.96499,12.77964,8.037293,890.5423
9.258429051,-315.3302,-340.2636,-17.80042,-1.463835,1.251118,2.375517,-19.96499,12.77964,8.037293,890.5423
9.278446674,155.3158,194.2814,-15.17939,1.6636,-0.08265525,1.376724,-18.82984,6.617933,14.00191,890.5408
9.298465252,158.517,45.21594,7.434626,0.2627749,-0.4325044,1.250288,-18.82984,6.617933,14.00191,890.5408
9.318482876,155.993,200.896,37.30219,-0.4898934,-1.869784,-1.051422,-9.143512,51.05485,13.33715,890.5427
9.338501453,28.00433,-147.6715,-7.011523,0.469614,0.03539032,0.4160985,-9.143512,51.05485,13.33715,890.5427
9.358519077,-562.0731,-247.3044,4.265007,4.143648,-1.561758,5.699663,-9.143512,51.05485,13.33715,890.5427
9.378537655,112.8991,-64.10269,-6.584844,0.7529505,0.1410184,2.955139,-19.23234,9.866324,14.44244,890.5427
9.398555279,-8.871656,28.50217,6.215542,-0.4740194,0.1217898,2.295223,-19.23234,9.866324,14.44244,890.5411
9.418573856,22.89464,267.9874,8.166078,-1.805772,-3.191088,-3.716682,-11.90528,35.24471,16.31768,890.5411
9.438592434,201.7955,-60.73632,-2.500911,0.6521342,-0.9636129,-0.2887596,-11.90528,35.24471,16.31768,890.543
9.458610058,531.9556,54.13388,0.5467999,-0.5880448,0.9033948,-0.2253321,-11.90528,35.24471,16.31768,890.543
9.478628636,-6.716965,175.1462,13.53005,-0.1372083,-2.588177,-1.193516,-17.92987,22.4511,13.61714,890.543
9.498646259,243.5349,-43.43196,-1.220872,-0.07822066,-1.434588,1.425513,-17.92987,22.4511,13.61714,890.543
9.518664837,42.10217,446.7006,30.59723,3.651997,0.9086937,1.383664,-19.081,33.23879,14.07126,890.5414
9.538682461,-27.64824,1934.343,93.13626,16.0169,0.1678038,-15.76822,-19.081,33.23879,14.07126,890.5414
9.558701038,-141.9084,1934.521,76.3129,-7.415755,-0.2091467,-15.84177,-19.081,33.23879,14.07126,890.5378
9.578719139,82.91816,156.7197,-13.71649,-1.611591,0.9337807,-0.5909755,-14.82513,25.44393,-31.31655,890.5378
9.598737240,-158.0378,2.811413,12.49383,0.5724818,0.01039298,-2.253486,-14.82513,25.44393,-31.31655,890.5361
9.618755818,37.79278,76.51733,-7.621066,0.4023782,0.1530415,-0.6812471,0.03459937,18.65997,-22.18332,890.5361
9.638773441,99.60162,-48.45199,2.314472,-0.0170418,0.8905792,0.917876,0.03459937,18.65997,-22.18332,890.5397
9.658792019,-102.7546,44.50723,7.49558,-0.4428335,0.08186742,-1.751092,0.03459937,18.65997,-22.18332,890.5397
9.678810120,-76.71362,3.047649,3.960236,0.2040554,-0.2383108,-2.156649,11.89784,29.18393,-13.0303,890.5381
9.698828221,-238.8695,224.6378,17.91875,-0.7875153,-1.314395,-4.805377,11.89784,29.18393,-13.0303,890.5381
9.718846321,256.2168,-29.13963,-6.82866,0.1519976,0.5266324,1.657433,14.08664,24.48678,-10.90864,890.54
9.738864422,-158.6534,8.540157,4.02119,0.7391132,0.0939034,0.2096542,14.08664,24.48678,-10.90864,890.54
9.758882523,13.29087,20.58824,5.727908,1.283875,1.021243,-0.703776,14.08664,24.48678,-10.90864,890.5384
9.778900624,52.44468,31.86855,-4.207629,-0.08883695,-0.8002319,-0.8118798,14.76472,30.22135,-9.580991,890.5384
9.798919201,96.95442,-4.452872,4.508824,0.3436606,-0.2727787,-1.978729,14.76472,30.22135,-9.580991,890.542
9.818937302,16.92307,-120.0908,-1.098964,0.003037774,0.5077773,-0.5017236,15.47757,26.22987,-9.149971,890.542
9.838955403,-203.9635,50.64939,3.716419,0.2386207,0.5685822,-1.377847,15.47757,26.22987,-9.149971,890.5438
9.858973503,69.00501,11.96559,-5.548622,-1.141409,-0.9851748,-2.522933,15.47757,26.22987,-9.149971,890.5438
9.878991604,38.90091,169.2994,2.131609,-0.02847208,0.549048,-0.7522127,10.70059,36.41049,-9.16525,890.5423
9.899009705,47.82748,-33.21471,-11.33927,0.5120083,-0.2978894,-0.0653,10.70059,36.41049,-9.16525,890.5423
9.919028282,158.0245,-36.69921,-5.000034,0.4396099,-0.909881,-2.062947,14.8443,23.00818,-11.77662,890.5458
9.939045906,-37.12888,258.8922,15.66344,1.555989,-0.4318029,-1.207768,14.8443,23.00818,-11.77662,890.5458
9.959064484,94.79974,1934.521,29.19528,13.94886,0.2843727,-15.77347,14.8443,23.00818,-11.77662,890.5476
9.979082108,-172.505,1934.521,111.7883,-1.945017,0.8346422,-15.81668,35.97168,24.93944,-38.57687,890.5476
9.999100685,115.1154,46.39712,-25.4197,2.039639,0.07066316,3.603864,35.97168,24.93944,-38.57687,890.5408
10.019119263,-710.0695,-275.1803,48.94445,4.096366,0.6448138,5.240479,26.48389,20.688,-18.95613,890.5408
10.039136887,-367.5353,-36.81733,19.74738,-2.913649,-0.6194605,-2.372084,26.48389,20.688,-18.95613,890.5444
10.059155464,-803.9524,-171.7086,49.49304,0.4559382,1.937838,4.433445,26.48389,20.688,-18.95613,890.5444
10.079173088,176.8627,178.2173,12.37192,1.499549,-0.9349948,-1.892812,-28.67866,17.59611,4.924707,890.5444
10.099191666,135.431,-31.44294,-10.42496,-0.4037591,-2.079812,-1.826368,-28.67866,17.59611,4.924707,890.5444
10.119209290,-55.59766,136.5806,-4.451446,1.782395,-2.557986,-0.5937489,-15.58522,9.441169,12.73231,890.5431
10.139227867,98.8013,-171.2952,-16.7642,1.132385,-0.9877833,0.7294384,-15.58522,9.441169,12.73231,890.5431
10.159245491,-387.4815,-252.7969,-5.548622,-1.629292,5.2359,9.267754,-24.29719,43.05175,16.22802,890.5431
10.179264069,103.7879,132.8008,18.71115,-2.028251,-0.29719,-3.653286,-24.29719,43.05175,16.22802,890.545
10.199281693,259.3565,-43.31384,-29.86935,0.2732583,-0.03430854,2.437729,-24.29719,43.05175,16.22802,890.545
10.219300270,-94.1974,190.1473,19.80833,-3.414104,-3.446201,-4.094661,-11.68143,13.71787,12.34328,890.5398
10.239318848,227.4055,143.6086,31.51154,0.4929944,-0.7598581,-0.6025408,-11.68143,13.71787,12.34328,890.5398
10.259336472,-349.8668,-3.212628,9.080391,3.542791,-2.455908,4.830992,-22.35284,31.13553,19.19886,890.5417
10.279355049,65.55751,27.91158,22.06364,-0.6881215,-0.1844928,-1.201353,-22.35284,31.13553,19.19886,890.5417
10.299372673,724.4003,-3.271688,-17.00801,0.5475476,0.7544581,-0.2922376,-22.35284,31.13553,19.19886,890.5417
10.319391251,-46.24014,-70.59921,-4.5124,-0.3498552,2.965847,8.531511,-13.93787,23.4188,14.09078,890.5417
10.339408875,202.6574,15.62726,-7.011523,-0.1496239,-1.121387,-1.256771,-13.93787,23.4188,14.09078,890.5419
10.359427452,151.622,242.4738,1.27825,-0.9769589,0.7693565,1.000947,-20.55025,29.63672,18.77553,890.5419
10.379445076,-271.2514,1925.189,96.30588,16.01974,-4.245547,-14.99168,-20.55025,29.63672,18.77553,890.5437
10.399463654,-77.26768,1934.521,64.36587,9.870167,2.009079,-15.77144,-20.55025,29.63672,18.77553,890.5437
10.419481754,146.6354,-212.4595,-29.32077,0.3898041,-0.05498639,1.433514,-7.206303,25.97207,-28.69695,890.5349
10.439499855,-137.8453,-97.82551,2.009701,-0.3996443,-0.1087891,-1.349141,-7.206303,25.97207,-28.69695,890.5349
10.459517956,64.81876,74.33213,1.887793,-0.5652065,0.06112033,-1.164649,5.179272,18.59179,-28.1708,890.5333
10.479536057,80.82503,-47.03457,1.27825,-0.5784497,0.07526887,-0.7196234,5.179272,18.59179,-28.1708,890.5333
10.499554157,-42.8542,-30.32081,-4.146675,-0.2759537,-0.04827628,-0.5912291,5.179272,18.59179,-28.1708,890.5369
10.519572735,-103.8627,35.35305,7.434626,-0.4980046,0.4600379,-2.490189,10.05208,29.21834,-13.48208,890.5369
10.539590836,-14.78166,-1.55897,5.423137,0.8272477,1.149672,0.1423306,10.05208,29.21834,-13.48208,890.5386
10.559608936,253.8159,-57.84241,-8.352515,-0.464831,-0.08395225,-2.459327,15.85406,26.22819,-10.45278,890.5386
10.579627037,-26.04762,-11.24468,-6.52389,-0.9173978,0.2394165,0.1952517,15.85406,26.22819,-10.45278,890.5372
10.599645138,-0.2528941,69.19398,1.339205,-0.5147145,0.1492992,-2.60248,15.85406,26.22819,-10.45278,890.5372
10.619663716,1.717108,-8.823255,-0.1846507,-0.2558731,-0.1597741,-0.1302353,15.81189,30.94201,-10.87587,890.5389
10.639681339,76.08471,-92.80547,-5.182897,0.6023008,-0.4968453,-0.2280363,15.81189,30.94201,-10.87587,890.5389
10.659699917,21.4787,-56.24781,1.765884,-0.5608216,2.105082,1.10795,14.78223,26.96859,-7.101646,890.5425
10.679717541,-185.2484,163.2163,5.910771,-0.4316089,-0.502893,-0.8978912,14.78223,26.96859,-7.101646,890.5425
10.699736118,20.43213,132.5645,8.531802,-1.137264,-1.538188,-3.985055,14.78223,26.96859,-7.101646,890.541
10.719753742,36.49997,19.52517,-0.2456049,-0.3998804,0.8000584,-0.1439761,15.02879,35.60613,-10.87032,890.541
10.739772320,7.811804,-14.37482,-12.86313,-0.2468304,-0.6685994,-1.632558,15.02879,35.60613,-10.87032,890.5445
10.759789944,-7.332591,47.22395,8.166078,-0.6623296,-0.03034343,-1.217391,12.22597,24.88025,-9.182639,890.5445
10.779808521,-6.963216,84.78561,-1.708506,0.3473965,1.561093,0.1665188,12.22597,24.88025,-9.182639,890.5464
10.799826145,508.685,1934.521,18.22352,12.53498,0.4750099,-0.6145758,12.22597,24.88025,-9.182639,890.5464
10.819844723,-22.16917,1934.521,95.75729,10.42851,1.796368,-15.76959,29.38922,26.06521,-30.48463,890.5413
10.839863301,8.858368,561.2164,19.93024,-4.90406,0.5723963,-9.726504,29.38922,26.06521,-30.48463,890.5413
10.859880924,-31.95762,-3.448865,6.825084,-1.394108,1.268725,0.4260249,6.910717,16.67285,-14.41465,890.5395
10.879899502,-362.795,-71.95757,17.06539,-0.5109344,-0.6147524,1.801067,6.910717,16.67285,-14.41465,890.5395
10.899917126,-304.6799,-256.7539,10.36043,-0.8499104,0.5387993,2.439099,-37.38753,22.84722,0.1339769,890.5395
10.919935703,161.1642,283.9333,4.996458,-0.9371946,-5.093919,-8.202015,-37.38753,22.84722,0.1339769,890.5395
10.939953327,62.91032,135.8718,16.76062,-0.2486351,-0.4994182,0.195008,-37.38753,22.84722,0.1339769,890.5395
10.959971905,-228.9579,-261.892,-31.88084,0.09632979,1.23741,5.671064,-16.73158,13.43867,12.73282,890.5395
10.979990005,-19.89136,-35.57708,7.617489,-1.44913,-0.3074876,-3.181078,-16.73158,13.43867,12.73282,890.538
11.000008106,292.1078,42.20392,-1.159918,-0.5772163,1.724826,2.024601,-25.62525,32.23543,18.7372,890.538
11.020026207,147.4357,174.4375,20.05215,-1.037571,-1.53282,-1.898626,-25.62525,32.23543,18.7372,890.5416
11.040044308,125.8273,-62.15374,-24.62729,0.07896703,-0.2137419,0.2901502,-25.62525,32.23543,18.7372,890.5416
11.060062408,-529.0139,-266.2033,0.6687083,3.829388,-2.025285,5.193408,-9.236383,22.67209,11.58062,890.5383
11.080080509,-25.92449,-53.05861,1.156342,1.350292,-0.1464709,1.434194,-9.236383,22.67209,11.58062,890.5383
11.100098610,103.3569,-137.3952,-8.962058,-1.176986,2.260817,3.351935,-23.06336,27.16454,20.86119,890.5383
11.117614269,173.0458,331.2398,-3.659041,1.275844,-1.642001,-0.6746461,-23.06336,27.16454,20.86119,890.5402
11.137632847,137.3395,-53.41297,-1.586598,0.6452708,-1.496969,-1.547361,-23.06336,27.16454,20.86119,890.5402
11.157650471,563.4141,-2.503918,1.887793,-0.5060575,2.656744,2.766866,-13.21597,25.24161,14.10213,890.5419
11.177669048,19.81651,39.42813,1.765884,0.277249,-1.095551,0.6438463,-13.21597,25.24161,14.10213,890.5419
11.197687626,300.665,-152.5734,-2.318048,1.278374,0.8075116,2.881558,-18.01354,27.4435,20.53384,890.5422
11.217705250,38.5931,496.015,47.11582,3.44083,-0.638526,0.03005828,-18.01354,27.4435,20.53384,890.5422
11.237723827,-22.04605,1934.343,106.0586,16.01722,-0.2097463,-15.77134,-18.01354,27.4435,20.53384,890.5458
11.257741451,-120.3615,1934.521,89.05233,-7.205965,0.2273672,-15.83753,-5.471213,27.75215,-22.20803,890.5458
11.277760029,150.6986,150.9319,-25.60256,-1.613806,0.8285623,-1.124245,-5.471213,27.75215,-22.20803,890.5386
11.297777653,-167.4569,-9.650084,13.28623,1.009869,0.3117099,-0.7650675,14.79203,4.080136,-38.01354,890.5386
11.317796230,-101.2771,58.38615,8.227032,-0.5104518,-0.4253419,-2.486447,14.79203,4.080136,-38.01354,890.5372
11.337813854,155.0079,23.5412,-9.815416,-0.4268842,0.2622116,0.3490957,14.79203,4.080136,-38.01354,890.5372
11.357832432,-132.3662,16.33597,10.96997,0.1852781,1.185031,-0.9352008,6.44355,26.77535,-13.95626,890.5389
11.377850533,-122.2699,48.75949,12.43287,-0.2141107,-1.026586,-3.42826,6.44355,26.77535,-13.95626,890.5389
11.397868633,-197.9919,193.868,7.983214,-0.600817,-1.019255,-2.934653,15.08887,28.74877,-10.01745,890.5374
11.417886734,211.5224,-85.00966,-9.449692,0.8296399,0.8842217,0.3783146,15.08887,28.74877,-10.01745,890.5374
11.437904835,-114.6977,25.1358,3.716419,1.108422,-0.1302512,-0.2954631,15.08887,28.74877,-10.01745,890.5392
11.457922936,64.75719,-34.75025,1.887793,1.080734,0.6982731,0.206507,17.65647,31.27641,-10.8585,890.5392
11.477941513,-47.65608,85.73056,4.386915,-0.5619411,-0.9759749,-2.359272,17.65647,31.27641,-10.8585,890.5409
11.497959137,106.1888,-9.118551,4.02119,0.4972299,0.1601363,-1.545194,14.02973,28.38925,-7.104545,890.5409
11.517977715,-34.42013,-72.1938,-0.1846507,-0.03724546,0.04704907,-0.4095207,14.02973,28.38925,-7.104545,890.5397
11.537995339,-110.0805,68.13091,8.409894,0.05979906,0.3291091,-1.674584,14.02973,28.38925,-7.104545,890.5397
11.558013916,11.75181,5.350959,-4.268583,-0.476396,0.1695331,-1.12097,18.00352,34.14938,-11.71845,890.5433
11.578031540,-1.053208,159.3183,-3.35427,0.4932244,-0.4015793,-1.888521,18.00352,34.14938,-11.71845,890.5433
11.598050118,123.5495,15.80444,-1.098964,0.8302742,0.3333246,-0.5934398,10.76656,28.50999,-7.568751,890.5417
11.618067742,15.07619,-4.098517,-4.695263,-0.6388144,-0.9082705,-2.290823,10.76656,28.50999,-7.568751,890.5417
11.638086319,-28.51012,251.746,8.897528,2.326351,-0.4172181,-2.116001,10.76656,28.50999,-7.568751,890.5453
11.658103943,77.31596,1934.521,48.39586,13.63179,-0.9957769,-15.78502,22.47532,25.80765,-27.12616,890.5453
11.678122521,-203.9635,1934.521,120.9923,-1.765498,0.09946339,-15.82223,22.47532,25.80765,-27.12616,890.54
11.698140145,17.8465,46.75148,-19.32428,0.002096735,0.6786414,1.836993,29.44548,29.73995,-47.64101,890.54
11.718158722,-587.9293,-357.1545,20.66169,-0.758647,3.094608,4.8592,29.44548,29.73995,-47.64101,890.5367
11.738176823,-199.9003,223.8701,28.95146,-0.8165217,-1.500974,-3.279403,29.44548,29.73995,-47.64101,890.5367
11.758194924,-332.2599,-51.22778,19.74738,2.570168,-3.726631,-0.904938,-42.45211,27.23993,-5.061907,890.5385
11.778213024,70.85189,195.6398,20.05215,-2.245644,-2.229443,-4.422151,-42.45211,27.23993,-5.061907,890.5385
11.798231125,55.7075,-9.709144,-1.159918,-0.6841279,0.733005,0.9725397,-20.74144,13.87526,13.13358,890.5403
11.818249226,-70.80361,211.7629,29.50005,2.761118,-3.022131,-1.698566,-20.74144,13.87526,13.13358,890.5403
11.838267803,169.2905,-145.132,-23.10344,1.480728,-1.594621,0.4582978,-20.74144,13.87526,13.13358,890.537
11.858285427,-512.6998,-173.5985,17.12635,1.663772,-1.304345,5.854735,-22.6532,24.29123,18.30699,890.537
11.878304005,70.54408,83.19102,24.80658,-0.3654139,0.9925269,1.163578,-22.6532,24.29123,18.30699,890.537
11.898321629,358.9648,-85.06872,-24.87111,0.2462114,0.004615975,0.4721795,-9.249264,30.56546,11.60174,890.537
11.918340206,39.63966,307.557,11.39665,-1.043003,-1.685074,1.167387,-9.249264,30.56546,11.60174,890.537
11.938357830,237.5634,45.92465,8.836574,0.6819074,-2.139706,-2.311545,-21.5451,23.16211,20.42859,890.537
11.958376408,-334.5993,-42.84137,-11.76595,2.826647,-2.504006,4.130342,-21.5451,23.16211,20.42859,890.537
11.978394032,167.7514,103.5074,19.80833,-2.229681,-2.149111,-6.831692,-21.5451,23.16211,20.42859,890.5338
11.998412609,695.4043,-47.74328,-15.72798,-0.8823956,0.5447586,0.5500757,-13.59886,26.6557,14.10251,890.5338
12.018430233,-3.207898,-71.66227,-1.159918,0.3136798,3.18357,7.712566,-13.59886,26.6557,14.10251,890.5355
12.038448811,339.8804,-127.3551,-7.438203,0.617789,-0.2802629,-1.086622,-17.25378,25.28872,20.47263,890.5355
12.058466434,164.6733,212.0582,5.118366,0.1343713,0.2939694,1.436603,-17.25378,25.28872,20.47263,890.5341
12.078485012,-280.7936,1934.521,67.59644,16.00992,-1.08856,-8.927121,-17.25378,25.28872,20.47263,890.5341
12.098503113,-49.81077,1934.521,69.1203,10.59762,1.798255,-15.771,-5.954488,30.20393,-5.101187,890.5341
12.118521214,188.7442,-193.2062,-35.23333,-0.696413,-0.08107554,-0.8753862,-5.954488,30.20393,-5.101187,890.5341
12.138539314,-120.9156,-75.97359,9.141345,-0.2031512,0.4502725,-0.5173131,21.59808,6.831859,-37.07458,890.5305
12.158557415,-26.97106,45.68841,12.25001,-0.3881976,-0.4813725,-1.669598,21.59808,6.831859,-37.07458,890.5305
12.178575516,149.8983,25.25392,-12.00977,-0.6759757,-0.06806085,0.02337487,21.59808,6.831859,-37.07458,890.5291
12.198593617,-71.4808,-28.54904,4.325961,0.1531461,0.5790834,0.2273706,1.812584,22.21228,-15.31606,890.5291
12.218611717,-149.6653,21.76942,11.09188,-0.6435016,-0.533788,-2.732201,1.812584,22.21228,-15.31606,890.5325
12.238630295,89.19754,-71.1898,-1.220872,0.02081143,1.230497,1.316958,14.04852,28.77223,-11.33284,890.5325
12.258647919,234.9162,-47.74328,-7.803928,-1.048407,0.02408756,-4.61729,14.04852,28.77223,-11.33284,890.5344
12.278666496,33.4834,15.8635,-3.293316,-0.4346719,0.3885169,1.061262,14.04852,28.77223,-11.33284,890.5344
12.298684120,-35.89763,75.45425,-1.220872,-0.4227737,-0.05493607,-1.669553,16.55803,30.19453,-10.87121,890.5328
12.318702698,-68.15642,88.62447,3.533556,-0.6498861,0.4354623,-1.745405,16.55803,30.19453,-10.87121,890.5328
12.338720322,51.15186,-83.65129,-7.011523,0.9226072,0.112789,0.8490386,12.90358,30.24484,-7.109612,890.5347
12.358738899,41.67123,-83.0607,2.619243,-0.5518023,0.7591141,1.06253,12.90358,30.24484,-7.109612,890.5347
12.378756523,-120.6693,127.7807,6.703176,-0.07469583,0.1771193,-1.075736,12.90358,30.24484,-7.109612,890.535
12.398775101,-146.0331,74.68649,5.605999,0.06777091,-1.011311,-3.326798,18.33638,31.26602,-11.28784,890.535
12.418792725,104.5882,-0.3777858,-4.634309,0.5295625,-0.006009455,-0.2415821,18.33638,31.26602,-11.28784,890.535
12.438811302,53.79905,-61.20879,-4.207629,-0.2536271,0.1970762,-1.05147,8.8862,31.72341,-7.141511,890.535
12.458828926,-80.77675,25.1358,0.1810746,-0.5143241,0.3700618,-1.431998,8.8862,31.72341,-7.141511,890.5367
12.478847504,38.96247,30.80548,2.86306,1.115127,0.8252503,-0.8701651,8.8862,31.72341,-7.141511,890.5367
12.498865605,350.8385,1824.966,35.71738,11.35934,-4.245364,-5.359349,18.81347,25.17503,-20.75412,890.5334
12.518883705,19.50869,1934.521,108.192,12.74803,2.499442,-15.75293,18.81347,25.17503,-20.75412,890.5334
12.538901806,35.51497,957.3266,44.12907,-6.426168,-0.1017137,-13.71366,43.66422,21.25221,-54.0055,890.5281
12.558919907,-186.9722,178.8079,9.080391,-0.8471671,-0.7983814,-1.419002,43.66422,21.25221,-54.0055,890.5281
12.578938007,-372.5219,92.99485,55.28369,-1.039135,-4.196781,-0.3037101,43.66422,21.25221,-54.0055,890.5298
12.598956585,-288.1195,-333.4128,22.12459,-0.9665124,4.846143,6.621953,-10.54817,23.81911,-10.25965,890.5298
12.618974209,90.12098,298.6982,-14.6308,0.361926,1.087296,3.947353,-10.54817,23.81911,-10.25965,890.5266
12.638992787,220.0796,196.1713,20.05215,0.07634515,-0.164211,-0.4254223,-24.26221,9.601526,10.97589,890.5266
12.659010410,-450.4601,-398.6732,-19.69,0.7354895,-0.05423902,5.891285,-24.26221,9.601526,10.97589,890.5266
12.679028988,27.32714,146.9159,-3.598087,-2.089539,-0.9007152,-5.545512,-24.26221,9.601526,10.97589,890.5266
12.699046612,74.05315,116.6776,11.3357,-0.1493289,-1.197589,0.2098152,-21.82799,15.65254,17.42035,890.5215
12.719065190,84.27254,221.9802,37.11933,-0.4657536,-2.541167,-2.805298,-21.82799,15.65254,17.42035,890.5215
12.739082813,-164.8712,-54.59415,-3.841904,-1.530481,-1.681674,-3.248744,-6.126275,39.5079,10.7829,890.5233
12.759101391,-544.1583,-392.2948,-14.20412,1.836271,3.10679,10.17024,-6.126275,39.5079,10.7829,890.5233
12.779119015,1.347733,-57.36993,5.727908,-0.4502965,-2.894606,-4.056062,-21.482,17.41583,18.73434,890.5221
12.799137593,45.36498,20.41106,10.60425,-1.716983,-0.4523415,-1.817803,-21.482,17.41583,18.73434,890.5221
12.819155216,33.91434,330.472,-2.013277,1.688138,-3.324222,1.560107,-21.482,17.41583,18.73434,890.5239
12.839173794,332.9238,62.22499,-1.098964,0.6163324,-0.4289086,-1.402847,-11.10955,30.21992,14.56972,890.5239
12.859191895,473.779,-31.79729,0.7296625,-0.512143,1.705416,0.7337554,-11.10955,30.21992,14.56972,890.5206
12.879209995,64.69563,118.2722,4.996458,0.6016094,-0.7795656,2.642215,-17.94964,23.11475,16.16888,890.5206
12.899228096,336.6176,-124.225,4.44787,0.3818303,0.5083247,1.571978,-17.94964,23.11475,16.16888,890.5206
12.919246197,-84.10113,562.2794,46.01865,3.879899,-1.135614,-0.9954908,-17.94964,23.11475,16.16888,890.5224
12.939264297,-13.36572,1934.402,79.11679,16.01695,0.09977676,-15.76878,-2.790946,35.12587,5.203042,890.5224
12.959282875,-76.03643,1927.611,64.97541,-8.276073,-0.6545367,-15.84805,-2.790946,35.12587,5.203042,890.5155
12.979300499,65.55751,149.5736,-9.205874,-3.021182,1.623129,-1.496308,-6.004261,19.18016,-34.24014,890.5155
12.999318123,-127.3796,5.823433,15.0539,0.4164796,0.3433105,-1.588366,-6.004261,19.18016,-34.24014,890.5155
13.019336700,6.76524,90.39624,-2.379003,0.1930656,0.0280941,-1.316756,-6.004261,19.18016,-34.24014,890.5155
13.039355278,66.78876,-21.63911,1.339205,0.05047696,0.6854425,0.5912445,-1.389786,16.83153,-17.47387,890.5155
13.059372902,-77.82175,19.70235,5.605999,-0.1087558,0.07181616,-1.545331,-1.389786,16.83153,-17.47387,890.5155
13.079390526,-88.84145,16.09974,7.312718,-0.1883592,-0.5182539,-2.419579,13.67891,28.77878,-11.33612,890.514
13.099409103,-161.3006,186.9581,11.27474,-1.213002,-1.504995,-5.687501,13.67891,28.77878,-11.33612,890.514
13.119427204,198.1018,9.307927,-7.011523,0.5113028,0.5977383,0.7175129,13.67891,28.77878,-11.33612,890.5157
13.139445305,-137.4759,15.27291,7.49558,0.5543752,-0.07224342,-0.0966388,15.1021,28.08048,-11.32529,890.5157
13.159463406,39.70123,59.27203,7.617489,1.262422,1.161926,-0.4340641,15.1021,28.08048,-11.32529,890.5161
13.179481506,19.26244,32.99068,-2.561865,-0.1614421,-0.6090547,-0.7216218,13.64274,30.97097,-8.407225,890.5161
13.199499607,166.3355,-84.18283,1.765884,0.2250957,-0.03456913,-1.077555,13.64274,30.97097,-8.407225,890.5179
13.219518185,-30.78794,-40.59711,-1.281827,-0.2979847,0.2379562,-1.182672,13.64274,30.97097,-8.407225,890.5179
13.239535809,-194.9753,50.64939,1.461113,0.4287191,0.3200526,-1.589005,17.99219,28.33348,-10.86341,890.5164
13.259554386,70.11314,-12.54399,-3.171407,-0.843166,-0.3357743,-1.415642,17.99219,28.33348,-10.86341,890.5164
13.279572010,4.795238,140.8328,3.655465,0.3601304,0.6417925,-1.268175,8.857889,34.9685,-7.568425,890.52
13.299590588,85.07285,-38.29381,-10.72973,0.9092366,-0.03248438,-0.1445205,8.857889,34.9685,-7.568425,890.52
13.319608212,139.0017,-64.87046,1.583022,-0.3067048,-0.05360999,-1.868719,8.857889,34.9685,-7.568425,890.5184
13.339626789,-20.8148,293.1466,15.78535,1.896576,-0.323074,-1.220337,16.64182,23.72364,-15.17956,890.5184
13.359644413,140.5407,1934.521,65.524,11.22781,1.355847,-15.60175,16.64182,23.72364,-15.17956,890.5203
13.379662514,-173.1822,1934.521,117.457,-3.20584,0.6368359,-15.82211,39.2531,16.14504,-26.13153,890.5203
13.399680615,53.5528,97.83771,-19.08046,1.764761,0.03643731,1.716195,39.2531,16.14504,-26.13153,890.5117
13.419698715,-715.2407,-256.5767,39.25273,2.826416,0.8486093,4.393384,39.2531,16.14504,-26.13153,890.5117
13.439716816,-304.5567,74.27307,25.41612,-1.795959,-2.01138,-6.264488,2.528872,20.33468,-7.664305,890.5134
13.459734917,-346.9734,44.56629,28.03715,2.49481,-1.232631,0.6909242,2.528872,20.33468,-7.664305,890.5134
13.479753494,69.92845,90.63248,15.23677,0.5414699,-2.407785,-4.471775,-23.98322,14.62725,7.50879,890.5152
13.499771118,32.06746,-62.09468,4.204052,0.5549231,1.278743,1.784202,-23.98322,14.62725,7.50879,890.5152
13.519789696,-33.55825,165.7558,-5.67053,2.668038,-3.067525,-1.481821,-19.20985,7.726043,14.00149,890.5137
13.539807320,197.8555,-159.3062,-23.65203,0.4850728,-0.1750729,0.3071507,-19.20985,7.726043,14.00149,890.5137
13.559825897,-556.5939,-324.672,3.533556,1.247154,-0.2721665,6.520515,-19.20985,7.726043,14.00149,890.5173
13.579843521,48.44311,219.4997,15.48058,-1.245275,-0.1345064,-2.926847,-6.539503,49.23423,13.35551,890.5173
13.599862099,133.1532,-80.81645,-29.38172,1.066555,0.4659961,4.11873,-6.539503,49.23423,13.35551,890.5176
13.619879723,-157.1759,174.0241,26.39139,-2.684609,-1.965123,-1.653521,-20.34575,9.882745,15.30332,890.5176
13.639898300,123.611,91.10495,12.00619,-0.01564985,-0.7203431,-2.008637,-20.34575,9.882745,15.30332,890.5193
13.659915924,-309.1124,-52.46802,-4.573355,2.26373,1.279318,7.096349,-20.34575,9.882745,15.30332,890.5193
13.679934025,296.1094,51.0628,13.40814,-1.494087,-0.2602589,-3.638331,-10.78977,34.5521,16.26358,890.5229
13.699952126,621.7755,-1.263674,-12.80217,-0.4139678,-0.4429678,-0.1489985,-10.78977,34.5521,16.26358,890.5229
13.719970226,-156.8681,-108.1609,1.27825,0.6876443,0.5014202,6.274987,-17.55908,22.07573,14.05483,890.5232
13.739988804,203.0268,26.49416,1.887793,0.6634165,-0.6277784,-0.9821115,-17.55908,22.07573,14.05483,890.5232
13.760006428,233.5002,226.8821,1.156342,-0.8049906,1.00298,1.311143,-17.55908,22.07573,14.05483,890.5232
13.780025006,-234.8063,1924.953,81.31114,15.8283,-5.019821,-15.81175,-17.28657,33.58241,11.91127,890.5232
13.800042629,-141.7853,1934.521,77.04435,9.194655,2.065665,-15.773,-17.28657,33.58241,11.91127,890.5145
13.820061207,158.3323,-157.18,-31.88084,0.8998668,-0.2578035,1.75174,-14.45042,26.11868,-33.48833,890.5145
13.840078831,-113.5896,-98.29798,4.204052,0.0361844,0.1997322,-0.6186731,-14.45042,26.11868,-33.48833,890.5164
13.857594490,9.720243,42.97169,1.826838,-0.4278432,-0.7150961,-1.868281,-14.45042,26.11868,-33.48833,890.5164
13.877613068,62.11,-9.531965,-0.9161012,-0.7999552,-0.3185203,-0.3515528,0.415775,17.18305,-21.7485,890.5164
13.897631168,12.05962,-49.51506,-2.19614,-0.2015914,0.04153712,0.1146014,0.415775,17.18305,-21.7485,890.5181
13.917649269,-185.2484,58.09085,10.60425,-0.7640522,-0.02923512,-2.828872,11.89091,29.9183,-13.02838,890.5181
13.937667370,68.63564,-96.58527,-0.1846507,0.547617,0.8827927,0.8025951,11.89091,29.9183,-13.02838,890.5187
13.957685471,228.5752,-24.06054,-7.803928,-1.05152,-0.6086153,-3.590608,11.89091,29.9183,-13.02838,890.5187
13.977703571,11.07462,2.338939,-3.415224,-0.6397917,0.4507203,0.4654811,14.4505,24.84579,-10.46903,890.5222
13.997721195,-43.59295,57.55931,-1.708506,-0.06583257,0.3284526,-1.656608,14.4505,24.84579,-10.46903,890.5222
14.017739773,-47.16358,32.04573,-1.647552,-0.2607821,0.3328359,-0.8841761,14.02321,30.23284,-9.152193,890.5225
14.037757397,91.16754,-137.9267,-9.632554,0.09898526,-1.031231,0.06845453,14.02321,30.23284,-9.152193,890.5225
14.057775974,68.75877,-6.697123,1.400159,-0.9269484,1.249919,0.1040702,14.02321,30.23284,-9.152193,890.5261
14.077793598,-160.0078,125.1231,0.7906168,0.06178774,-0.03771934,-0.6065524,16.22484,25.85283,-10.01509,890.5261
14.097812176,-124.5477,127.7217,11.88428,-0.1001455,-1.598949,-3.501259,16.22484,25.85283,-10.01509,890.5228
14.117829800,49.05873,-7.996426,0.2420289,0.4990186,0.9616355,-0.321587,10.32555,36.78284,-8.794408,890.5228
14.137848377,89.44379,-34.57307,-9.876371,-0.3341701,-0.3457811,-1.161044,10.32555,36.78284,-8.794408,890.5246
14.157866478,13.29087,18.28493,3.167831,-0.8857287,0.2402347,-1.797974,10.32555,36.78284,-8.794408,890.5246
14.177884579,95.47692,23.77744,-0.3675133,0.5341007,1.0533,0.1198775,14.85758,21.60065,-11.78029,890.5281
14.197902679,249.3218,1656.883,39.25273,11.35162,-5.269054,-5.952418,14.85758,21.60065,-11.78029,890.5281
14.217920303,32.0059,1934.521,122.76,13.69728,1.835497,-15.7551,32.00431,20.66244,-37.81522,890.5267
14.237938881,-9.610407,1161.553,45.2872,-7.206141,-1.37731,-14.94256,32.00431,20.66244,-37.81522,890.5267
14.257956505,-141.6621,61.51628,4.630732,-0.5750329,-0.9436891,-0.393737,32.00431,20.66244,-37.81522,890.5231
14.277975082,-486.2895,87.26611,45.71387,0.07122571,-2.441419,-0.2423551,-4.366501,29.14652,-23.93597,890.5231
14.297992706,-263.8639,-223.2083,10.96997,-0.7846155,1.046826,3.071551,-4.366501,29.14652,-23.93597,890.5267
14.318011284,104.0341,233.0833,2.253518,0.02354397,-3.717304,-4.905451,-29.80363,19.08289,5.354049,890.5267
14.338028908,45.73436,45.09782,14.44436,-2.810332,-1.562776,-1.84961,-29.80363,19.08289,5.354049,890.5234
14.358047485,-137.0449,-239.2133,-14.08221,-1.311164,2.743827,5.300065,-29.80363,19.08289,5.354049,890.5234
14.378065109,36.49997,25.78545,-2.744728,-1.725601,-2.626703,-4.552869,-15.93986,8.349424,11.85543,890.5234
14.398083210,147.8051,113.134,10.84806,-0.9486085,-0.6100969,-0.4959667,-15.93986,8.349424,11.85543,890.5234
14.418101788,-160.1925,77.46227,30.10959,1.065691,-3.917827,-3.609234,-22.46209,44.42674,16.18591,890.5219
14.438119412,-2.469147,-63.33492,-7.98679,-0.9906937,0.02514897,-0.9116246,-22.46209,44.42674,16.18591,890.5219
14.458137989,-29.06418,-101.6644,-18.71473,0.2068858,2.049781,6.247716,-22.46209,44.42674,16.18591,890.5219
14.478155613,-51.4114,-46.97551,2.375427,0.9095823,-0.1287808,-1.615433,-12.71016,11.53171,12.76361,890.5219
14.498174191,216.2012,-50.10565,-2.92759,-0.4324459,1.066606,1.586715,-12.71016,11.53171,12.76361,890.5237
14.518191815,42.5331,249.0293,35.22975,-1.49203,-2.54797,-5.809544,-20.94353,32.15237,18.77879,890.5237
14.538210392,311.0075,-46.32586,-10.72973,0.3754762,-0.4198745,-0.2493377,-20.94353,32.15237,18.77879,890.5222
14.558228016,510.4703,48.28702,-6.584844,0.09087501,1.819445,2.823081,-15.04035,22.7653,14.07918,890.5222
14.578246594,-67.78705,45.09782,5.727908,-0.1319112,-1.134932,-0.9312116,-15.04035,22.7653,14.07918,890.524
14.598264218,227.2824,-126.4692,0.3029831,0.7066472,-0.6769169,3.022142,-15.04035,22.7653,14.07918,890.524
14.618282318,19.13932,562.1613,47.48155,3.512506,0.4366922,-1.017875,-21.59406,30.02736,17.4611,890.5225
14.638300419,-18.59855,1934.402,99.17073,16.01629,0.8733414,-15.76237,-21.59406,30.02736,17.4611,890.5225
14.658318520,-114.2668,1933.576,89.60091,-7.791433,-0.4138102,-15.84459,-5.769698,25.28329,-31.23611,890.5153
14.678337097,109.5132,89.03788,-17.37374,-1.828762,1.265792,-0.6927481,-5.769698,25.28329,-31.23611,890.5153
14.698354721,-159.269,18.34399,9.141345,0.8991786,-0.0659658,-1.126516,-5.769698,25.28329,-31.23611,890.5153
14.718373299,-17.85979,43.6804,1.948747,-0.2274359,-0.5980141,-1.966713,3.713575,16.77885,-27.31799,890.5172
14.738390923,118.5629,15.98162,-5.853393,-0.3165797,0.4853129,0.3193894,3.713575,16.77885,-27.31799,890.5172
14.758408547,-167.149,34.58528,12.55478,0.06380991,0.5038517,-1.471183,10.05208,29.21834,-13.48208,890.5156
14.778427124,-54.30484,-19.80827,5.17932,-0.03897174,-0.9129462,-2.402591,10.05208,29.21834,-13.48208,890.5156
14.798444748,-130.6424,228.8901,9.750887,-0.6269123,-1.170402,-3.909458,10.05208,29.21834,-13.48208,890.5209
14.818463326,181.9108,-61.44503,-5.548622,0.5032068,0.4197812,0.6652878,16.23059,25.48727,-10.45141,890.5209
14.838481426,-113.1587,64.46924,4.325961,1.087304,-0.1764493,-0.5910917,16.23059,25.48727,-10.45141,890.5245
14.858499527,12.36743,40.01873,4.44787,1.343454,0.8188083,-0.09896551,16.54999,30.55846,-9.99953,890.5245
14.878517628,5.103051,-5.220642,-5.121943,-0.4325557,-1.246375,-1.632587,16.54999,30.55846,-9.99953,890.5248
14.898535728,122.0104,54.72447,3.228786,-0.2050903,0.1420461,-2.385657,16.54999,30.55846,-9.99953,890.5248
14.918553829,-36.63638,-77.21384,2.314472,-0.6528305,0.04487494,-0.6215435,14.79027,26.60466,-7.973331,890.5284
14.938571453,-158.5918,124.5915,7.373672,0.1722315,0.05817163,-2.324828,14.79027,26.60466,-7.973331,890.5284
14.958590031,-5.054776,19.64329,2.802106,-0.961446,0.05589182,-1.28328,14.34424,36.35252,-10.87442,890.5287
14.978607655,71.09814,148.6286,-3.171407,0.4667736,-0.2125618,-0.729494,14.34424,36.35252,-10.87442,890.5287
14.998626232,119.7941,-52.3499,-9.205874,0.570447,-0.1609208,0.01620686,14.34424,36.35252,-10.87442,890.5305
15.018643856,24.24901,-40.77429,-5.365759,0.1176187,-1.015138,-2.072517,12.59015,25.23948,-8.80523,890.5305
15.038662434,-51.10359,284.1105,8.77562,1.760979,-0.6650753,-2.040039,12.59015,25.23948,-8.80523,890.529
15.058680058,57.00031,1934.521,50.40735,13.92041,-1.867876,-15.79138,25.83346,24.76859,-42.95956,890.529
15.078698158,-218.1844,1934.521,121.9067,-0.2797631,-0.3676917,-15.82163,25.83346,24.76859,-42.95956,890.5255
15.098716736,39.20872,44.03475,-14.6308,0.2408835,0.9686162,2.226604,25.83346,24.76859,-42.95956,890.5255
15.118734360,-585.4053,-282.7399,20.47883,-0.8722647,3.811,5.779325,26.58089,28.70416,-51.52568,890.5206
15.138752937,-286.2727,116.6776,38.82605,0.9140084,0.01785234,0.7487051,26.58089,28.70416,-51.52568,890.5206
15.158770561,-865.9459,-384.499,39.5575,2.923286,1.009078,5.857872,-30.84385,20.5234,1.492332,890.5224
15.178789139,286.9981,48.52325,-33.89233,5.684865,1.581504,9.105844,-30.84385,20.5234,1.492332,890.5224
15.198806763,285.89,22.2419,-7.98679,0.6177918,-0.7482098,-0.7503851,-30.84385,20.5234,1.492332,890.5209
15.218824863,-192.7591,165.2833,6.76413,0.1129643,-2.221526,-0.5665104,-17.4708,13.45178,12.72626,890.5209
15.238842964,123.3032,-99.12481,-25.35874,0.9086294,-0.4992329,0.7096224,-17.4708,13.45178,12.72626,890.5226
15.258861065,-333.3065,-122.0988,6.703176,0.2657095,-0.5120549,3.799512,-25.99426,31.93437,19.16848,890.5226
15.278879166,46.34998,143.2542,18.04066,0.6022527,-0.1544807,-0.01939463,-25.99426,31.93437,19.16848,890.5262
15.298897266,74.85345,-96.8215,-13.9603,-0.212466,0.4098336,1.198344,-25.99426,31.93437,19.16848,890.5262
15.318915367,8.550554,128.9028,2.497335,-1.785767,-3.121745,-2.490871,-9.544064,22.67779,11.51569,890.5298
15.338933468,204.8736,-2.031444,10.72615,-0.8037891,-1.914158,-1.339219,-9.544064,22.67779,11.51569,890.5298
15.358951092,-380.6481,-141.5884,16.15108,2.084637,-0.663658,3.692125,-23.42951,26.80391,20.85695,890.5266
15.378969669,115.731,156.1292,14.44436,-1.395775,-0.6867136,-2.143914,-23.42951,26.80391,20.85695,890.5266
15.398987293,550.7322,34.93963,-7.438203,-1.278913,0.2535901,-0.7874049,-13.20675,24.50886,13.66485,890.53
15.419005871,252.8309,-29.31681,2.436381,-1.761443,0.8298306,3.888594,-13.20675,24.50886,13.66485,890.53
15.439023495,271.6075,-6.224649,-4.5124,0.359468,-2.045727,-1.253234,-13.20675,24.50886,13.66485,890.5304
15.459042072,83.04128,163.6297,5.362183,0.2765804,-1.620744,0.3457616,-18.0155,27.44211,20.90701,890.5304
15.479060173,-74.25111,1934.521,26.39139,15.86087,6.075961,4.567161,-18.0155,27.44211,20.90701,890.5322
15.499077797,-25.98605,1934.521,81.43305,11.51087,2.63752,-15.76131,-5.461993,27.0194,-22.64531,890.5322
15.519096375,145.9583,-113.7715,-14.50889,-3.251209,0.2140462,-4.783698,-5.461993,27.0194,-22.64531,890.525
15.539113999,-80.83831,-56.24781,-0.1846507,0.1579421,0.4397251,-0.4250066,-5.461993,27.0194,-22.64531,890.525
15.559132576,24.86464,60.68945,4.204052,-0.4540434,-0.4649883,-2.213164,15.17863,2.237426,-37.95284,890.5235
15.579150200,91.29066,29.80148,-2.683774,-1.286391,-0.0998406,-1.238684,15.17863,2.237426,-37.95284,890.5235
15.599168778,-51.04202,8.126742,1.887793,0.2017428,0.3042654,-0.1675308,5.764759,27.15618,-14.39669,890.5253
15.619186402,-86.37894,-31.26576,6.520313,-0.1472166,-0.5782364,-2.034427,5.764759,27.15618,-14.39669,890.5253
15.639204502,50.78249,-20.98946,0.4248915,0.1014904,0.8446336,-0.09475483,5.764759,27.15618,-14.39669,890.5253
15.659222603,169.1673,-66.99659,-5.304805,-1.31162,-0.3945807,-4.508017,15.09116,28.7504,-10.45281,890.5238
15.679240704,1.409296,13.20584,-2.257094,-0.2656726,0.3618943,1.175081,15.09116,28.7504,-10.45281,890.5238
15.699258804,-23.33886,125.6546,1.583022,-0.1137301,0.1534414,-1.53066,17.29725,30.18142,-10.86465,890.5256
15.719276905,-98.1374,19.76141,2.924014,-0.4471987,0.1017949,-1.37846,17.29725,30.18142,-10.86465,890.5256
15.739295483,74.73033,-35.9905,-6.036256,0.8124077,-0.2576937,0.0649272,17.29725,30.18142,-10.86465,890.5259
15.759313107,80.82503,-131.4893,0.9125252,-0.3599015,1.097645,0.5562249,13.28705,28.76955,-7.110155,890.5259
15.779330731,-77.02143,112.4844,2.619243,0.1270553,0.8115882,-0.1978549,13.28705,28.76955,-7.110155,890.5276
15.799349308,-142.1546,92.58144,10.84806,-0.244747,-1.34837,-3.743108,18.31617,33.40793,-11.28226,890.5276
15.819366932,142.2029,-88.25791,-7.377248,1.258294,0.7142061,0.4907604,18.31617,33.40793,-11.28226,890.5262
15.839385510,56.26156,8.953572,-6.889615,-1.156518,0.1985855,-1.338242,18.31617,33.40793,-11.28226,890.5262
15.859403134,-102.0158,70.43423,5.118366,-0.4548592,0.0899159,-1.50564,11.12982,29.17661,-7.563714,890.528
15.879421234,69.55907,43.03075,6.886038,0.9369354,1.293532,-0.9677933,11.12982,29.17661,-7.563714,890.528
15.899439812,255.7243,1411.079,42.42235,8.2047,-4.282715,-5.590407,21.37224,25.46176,-27.57233,890.5316
15.919457436,28.80464,1934.521,106.6681,15.15476,0.6956872,-15.76209,21.37224,25.46176,-27.57233,890.5316
15.939476013,-30.8495,1351.37,45.2872,-6.730107,0.4088953,-15.38868,21.37224,25.46176,-27.57233,890.5229
15.959493637,-39.77607,105.8107,3.228786,-0.4941308,-1.488546,-1.8802,52.2406,20.65081,-32.47207,890.5229
15.979512215,-466.4048,104.7476,36.14406,-0.2167658,-1.754524,-0.6438308,52.2406,20.65081,-32.47207,890.5211
15.999529839,-252.5364,-287.2284,12.43287,-0.6227278,1.651789,4.203669,-22.88174,19.71576,-0.1802912,890.5211
16.019547462,-297.3539,387.346,13.591,0.3266811,1.471135,3.715632,-22.88174,19.71576,-0.1802912,890.5247
16.039566040,189.2983,157.96,14.32245,0.3320545,-0.9096798,-0.7921965,-22.88174,19.71576,-0.1802912,890.5247
16.059584141,-368.1509,-428.8524,-15.54511,-0.6167672,2.231829,6.196021,-22.88598,13.18239,12.24178,890.5265
16.079602242,116.4698,53.12988,-6.219119,-1.041962,-1.257225,-2.521022,-22.88598,13.18239,12.24178,890.5265
16.099620342,281.4575,41.19991,-0.7332386,1.012155,0.8518257,1.886876,-23.75968,23.57328,19.16595,890.525
16.119637966,2.086484,149.5145,32.97445,0.2694388,-0.9227079,0.9259434,-23.75968,23.57328,19.16595,890.525
16.139656544,166.828,-63.03962,-2.135186,-1.127266,0.05192526,-0.3383571,-23.75968,23.57328,19.16595,890.5303
16.159674168,-192.8822,-222.6767,-19.87286,-0.3220072,3.523184,7.722163,-8.199746,30.54851,11.17568,890.5303
16.179692745,110.6829,107.11,12.7986,-0.2463057,-0.4331225,-1.418036,-8.199746,30.54851,11.17568,890.5339
16.199710369,121.8257,-15.49695,15.7244,-0.7686283,1.083573,3.581105,-21.53758,22.12013,20.86124,890.5339
16.219728470,92.02942,239.9933,-12.4974,0.5940833,-0.9547906,2.103519,-21.53758,22.12013,20.86124,890.5323
16.239746571,493.6637,-11.42186,-20.23859,1.306423,-0.4705789,-0.5102565,-13.23272,27.01633,14.10675,890.5323
16.259764671,512.9328,68.54433,1.887793,0.1385691,0.8350291,3.709316,-13.23272,27.01633,14.10675,890.5342
16.279782772,106.8044,-33.56907,-9.083966,0.6801012,-0.4958646,0.5277957,-13.23272,27.01633,14.10675,890.5342
16.299800873,395.2867,-76.09171,-13.22885,-0.07031426,-1.268016,-0.4306564,-17.61764,24.92971,20.03303,890.5344
16.319818497,103.6647,258.1835,26.33043,2.340773,-0.3360565,1.354438,-17.61764,24.92971,20.03303,890.5344
16.339837074,-38.4217,1934.521,73.26518,14.62833,0.5919133,-15.6539,-4.861368,30.17311,-2.105983,890.5344
16.359854698,-138.2762,1934.521,102.4623,-4.624361,0.2408943,-15.82965,-4.861368,30.17311,-2.105983,890.5344
16.379873276,108.4051,186.4856,-14.44794,-0.3085945,1.434509,1.154365,-4.861368,30.17311,-2.105983,890.5344
16.399890900,-214.4907,-11.83528,11.45761,0.4455636,-0.4586454,-0.8026134,19.41724,9.008764,-36.21742,890.5344
16.419909000,-20.19917,79.8837,2.86306,-0.1084341,0.5863374,-0.5289456,19.41724,9.008764,-36.21742,890.535
16.439927578,76.88503,0.3899841,-5.182897,0.4498547,0.3393122,-0.04185142,0.3537581,20.40421,-15.76934,890.535
16.459945202,-48.45639,-10.59503,2.619243,-0.08316258,0.5909237,-0.8254636,0.3537581,20.40421,-15.76934,890.5385
16.479963780,-61.81548,10.72535,2.680197,-0.2296737,0.05188416,-1.781136,0.3537581,20.40421,-15.76934,890.5385
16.499981403,-182.8475,178.8079,11.03093,0.4057825,-0.02462807,-3.031608,13.67662,28.77716,-10.90076,890.5403
16.519999027,215.8933,-59.31889,-9.99828,0.7528488,0.3523381,0.8108969,13.67662,28.77716,-10.90076,890.5403
16.537515164,-75.05143,12.43807,-6.158164,-0.1904801,-0.2898791,0.04956838,16.20111,29.10116,-11.31273,890.5403
16.560035229,52.44468,-18.56803,1.27825,0.4582101,0.647235,0.5269333,16.20111,29.10116,-11.31273,890.5406
16.577551365,-28.14075,53.9567,-3.35427,0.1093158,-0.4138887,-0.8505986,16.20111,29.10116,-11.31273,890.5406
16.600071907,70.05157,-44.84938,-4.207629,-1.147771,-0.6058221,-1.543438,12.90241,30.61365,-7.544019,890.5424
16.617588043,-90.25739,71.08388,4.082144,0.03039926,0.896271,-0.7752483,12.90241,30.61365,-7.544019,890.5424
16.637605190,-134.2746,119.7487,4.752641,-0.2849763,-0.3555962,-1.424274,18.34677,30.16446,-11.29071,890.5444
16.657623768,104.5266,-24.53301,0.9125252,0.0950238,0.3136382,-2.107959,18.34677,30.16446,-11.29071,890.5444
16.677641392,73.80689,82.71854,-6.219119,0.2441437,0.5700729,-0.6724716,18.34677,30.16446,-11.29071,890.548
16.697659969,33.29871,-84.83248,-6.158164,0.2669999,-0.6993024,-0.9022491,8.8862,31.72341,-7.141511,890.548
16.717677593,-15.52042,37.12482,1.461113,-0.05153655,-0.2521738,-1.340103,8.8862,31.72341,-7.141511,890.5466
16.737695694,-71.85017,106.5194,-7.072477,1.107927,0.6066193,-0.8232028,18.429,24.80139,-17.27545,890.5466
16.757714272,46.78092,1934.521,8.409894,15.98998,7.185887,2.038461,18.429,24.80139,-17.27545,890.5483
16.777731896,-125.9021,1934.521,97.76878,7.511558,2.98899,-15.77042,18.429,24.80139,-17.27545,890.5483
16.797750473,91.47536,193.1593,8.958482,-1.463683,0.9669706,-2.118828,30.89356,10.51556,-19.3795,890.5397
16.817768097,-102.7546,-7.287715,23.52654,-1.641419,2.097229,1.072269,30.89356,10.51556,-19.3795,890.5397
16.837785721,-297.2924,-13.13458,23.89226,0.3334878,-1.287685,4.496223,-18.14278,23.20173,-5.664255,890.5397
16.857804299,-350.4209,-172.1811,11.70142,0.4623699,1.533913,4.659598,-18.14278,23.20173,-5.664255,890.5397
16.877821922,-18.78323,134.3363,9.385161,-1.578404,-1.619462,-4.103968,-18.14278,23.20173,-5.664255,890.5382
16.897840500,176.0623,-29.67116,3.716419,1.775534,-0.5612549,1.30063,-22.8691,12.82473,9.690837,890.5382
16.917858601,-518.7946,-187.8318,2.070655,3.287102,-1.659581,4.728601,-22.8691,12.82473,9.690837,890.54
16.937876225,204.3811,2.457057,-13.41172,-2.134472,-0.3652713,-2.221253,-21.41744,12.04021,16.10813,890.54
16.957894802,169.9677,-18.39085,0.9734795,0.8569214,-0.6483895,1.978821,-21.41744,12.04021,16.10813,890.5435
16.977912426,46.41154,215.5427,36.50979,-0.8813064,-0.9632547,-3.855847,-21.41744,12.04021,16.10813,890.5435
16.997930050,183.0805,-137.3361,-25.17588,0.3486916,-1.228621,-0.9933477,-4.332118,44.48866,12.05629,890.5438
17.017948627,-270.6358,48.58231,18.16257,3.716494,-2.788677,0.3362832,-4.332118,44.48866,12.05629,890.5438
17.037966728,-16.81323,-14.2567,4.752641,-0.7897795,-1.287522,-0.8218871,-21.43013,13.14014,16.54636,890.5456
17.057984829,-181.4316,-178.6776,-5.67053,-0.2185285,1.536734,3.043975,-21.43013,13.14014,16.54636,890.5456
17.078002930,192.9305,257.9473,31.32868,-2.090196,-1.137318,-4.816039,-21.43013,13.14014,16.54636,890.5441
17.098020554,532.7559,46.21994,-5.304805,0.3385982,-0.3961613,1.583682,-9.277079,31.59304,15.02517,890.5441
17.118039131,360.8116,11.25688,4.691687,-0.2556672,0.4089407,1.776494,-9.277079,31.59304,15.02517,890.5459
17.138056755,23.07932,74.33213,7.678443,-0.09566931,-0.8426444,0.8723664,-18.24881,23.12649,14.48688,890.5459
17.158075333,365.1826,103.6846,1.765884,0.2677436,2.215607,2.589202,-18.24881,23.12649,14.48688,890.5459
17.178092957,25.9112,1115.723,38.33842,8.380561,-3.887449,-3.303891,-7.496419,35.56171,9.018497,890.5459
17.198111057,18.52369,1934.521,66.37736,15.57045,-0.1519186,-15.77221,-7.496419,35.56171,9.018497,890.5427
17.218129158,13.53712,1718.6,58.63617,-11.25774,-1.504056,-15.86404,-7.496419,35.56171,9.018497,890.5427
17.238147259,-32.327,42.14486,-9.754462,-2.200031,0.0310373,-2.452479,-11.87277,20.31969,-33.04552,890.5375
17.258164883,-159.0844,45.21594,13.40814,0.6443172,-0.3992938,-1.531026,-11.87277,20.31969,-33.04552,890.5375
17.278183460,6.026489,21.6513,-1.403735,-0.38056,-0.4734384,-1.935706,-0.9977343,15.42394,-19.21571,890.5411
17.298201084,107.4201,12.91054,-3.049499,-0.0723846,0.5461619,0.8477045,-0.9977343,15.42394,-19.21571,890.5411
17.318219662,-191.5278,45.98371,10.48234,0.09646674,0.4182152,-1.332657,-0.9977343,15.42394,-19.21571,890.5414
17.338237286,-20.07605,10.60723,5.727908,-0.7721085,-0.8263239,-3.297838,11.89437,29.55111,-13.02934,890.5414
17.358255386,-32.01918,199.0061,3.533556,-0.8004639,-1.10254,-4.7539,11.89437,29.55111,-13.02934,890.5432
17.378273487,164.4886,51.71245,-2.379003,-0.185915,0.527572,0.1476605,14.81141,26.25002,-11.33281,890.5432
17.398291588,-54.8589,27.91158,6.459359,0.4497835,-0.2335753,-0.3978199,14.81141,26.25002,-11.33281,890.5417
17.418309689,1.163045,96.12498,7.49558,0.8741111,1.356694,-0.3741952,14.81141,26.25002,-11.33281,890.5417
17.438327789,-54.05859,17.63528,-0.855147,-1.019747,-1.327175,-2.241812,13.64817,30.60518,-8.78135,890.5405
17.458345413,209.3677,-11.89433,1.948747,0.5298398,0.3470513,-0.7328829,13.64817,30.60518,-8.78135,890.5405
17.478363991,-23.64668,-64.04363,0.7906168,-0.07642178,0.2387543,-0.06842174,16.58523,26.57901,-9.57453,890.5405
17.498381615,-198.6691,63.93771,9.080391,-0.4047593,0.4258077,-1.958284,16.58523,26.57901,-9.57453,890.5441
17.518399716,43.70279,37.00671,-0.3065591,-0.7355486,0.1046686,-0.9802505,16.58523,26.57901,-9.57453,890.5441
17.538417816,-0.1913315,130.2612,0.1201204,-0.2547148,-0.7036052,-1.968153,9.225151,35.69956,-8.433957,890.5443
17.558435917,95.66161,64.35112,-0.9161012,-0.02064686,0.5234456,-0.3224299,9.225151,35.69956,-8.433957,890.5443
17.578453541,18.27744,-14.19764,-1.830415,-0.3991955,-0.8911026,-2.411223,15.16036,22.63879,-12.64557,890.5461
17.598472119,7.565554,217.5508,6.459359,2.388923,0.004893424,-0.3528166,15.16036,22.63879,-12.64557,890.5461
17.618489742,151.8067,1934.521,86.18748,10.69749,3.038136,-15.56622,15.16036,22.63879,-12.64557,890.5478
17.638508320,-178.9691,1934.521,122.6991,-2.095603,0.3245914,-15.82136,31.68652,19.2272,-45.03694,890.5478
17.658525944,31.94434,49.4682,-7.194386,0.8558925,0.3771344,2.526949,31.68652,19.2272,-45.03694,890.5375
17.678544045,-605.7825,-377.2937,17.00444,1.903963,1.414128,6.20214,-2.212034,33.85089,-32.05207,890.5375
17.698562145,-180.6928,155.0661,20.72264,-1.379638,-1.062835,-1.878369,-2.212034,33.85089,-32.05207,890.5392
17.718580246,-471.2682,-142.6515,14.38341,3.668634,-5.34074,-2.004909,-2.212034,33.85089,-32.05207,890.5392
17.738598824,194.9005,233.4967,23.46558,-0.9442557,-0.9310141,-3.133514,-26.53529,18.65778,5.382093,890.5395
17.758616448,137.2779,83.54537,-6.950569,0.5748219,1.381439,1.829076,-26.53529,18.65778,5.382093,890.5395
17.778634072,-119.6227,95.77063,2.619243,1.947803,-1.720825,1.532619,-17.04463,7.694298,12.27919,890.5413
17.798652649,236.4552,-177.3192,-2.561865,0.6210076,-0.8971949,0.7788954,-17.04463,7.694298,12.27919,890.5413
17.818670273,-225.141,-145.8407,-0.9770554,-0.08640074,1.57446,6.618278,-17.04463,7.694298,12.27919,890.5431
17.838688374,213.0615,102.3853,12.00619,-0.5262468,-0.3377821,-2.002656,-21.36712,45.8758,16.19958,890.5431
17.858706475,186.1586,-111.6454,-14.81366,0.2813972,0.01584492,2.130425,-21.36712,45.8758,16.19958,890.5416
17.878724575,-45.87077,291.9654,23.09986,-3.795996,-1.436804,-4.572427,-13.08094,11.90708,12.32592,890.5416
17.898742199,174.8927,103.4483,3.472602,0.01346755,-1.594622,-3.276717,-13.08094,11.90708,12.32592,890.5402
17.918760777,-354.6687,-153.2821,-6.280073,4.147422,-3.670458,4.016918,-13.08094,11.90708,12.32592,890.5402
17.938778400,35.76122,131.5605,27.3057,-2.489203,-0.06291904,-4.609781,-21.62461,32.53158,18.77372,890.5419
17.958796978,682.6608,106.7556,-5.67053,0.7726288,0.3101209,1.477304,-21.62461,32.53158,18.77372,890.5419
17.978814602,95.41536,-0.3777858,4.386915,-0.5849352,0.5845488,1.101566,-14.66787,22.69917,13.64694,890.5436
17.998832703,111.9141,1.925524,-0.06274223,0.2157304,-1.054745,-1.934379,-14.66787,22.69917,13.64694,890.5436
18.018850803,195.0236,246.9032,-1.891369,-0.2096113,1.115033,2.000848,-20.92678,30.37765,18.77416,890.5439
18.038868904,45.18029,1934.521,19.99119,15.98289,7.704345,7.690334,-20.92678,30.37765,18.77416,890.5439
18.058886528,-32.63481,1934.521,104.7176,10.41744,1.60097,-15.77318,-20.92678,30.37765,18.77416,890.5439
18.078905106,143.8036,-50.51907,-4.878126,-3.527165,0.3499184,-6.29265,-10.10859,24.6015,-24.87025,890.5439
18.098922730,-48.39483,-110.0508,3.411648,0.003687705,0.232933,-0.02426581,-10.10859,24.6015,-24.87025,890.5389
18.118940830,-82.56207,89.27412,6.76413,-0.2366602,-0.07291407,-2.39961,2.234364,23.65971,-27.74808,890.5389
18.138958931,162.457,22.65531,-8.108699,-0.2631781,0.09032263,0.4974464,2.234364,23.65971,-27.74808,890.5425
18.158977032,-53.50453,-36.81733,5.118366,-0.01883016,0.4737081,0.2467549,2.234364,23.65971,-27.74808,890.5425
18.178995609,-193.1285,-3.271688,10.23852,-0.4342478,-0.6183409,-3.557431,10.42862,28.47742,-13.48071,890.5409
18.199013233,88.39722,-55.71628,-3.476178,-0.2414995,0.6058397,0.3925972,10.42862,28.47742,-13.48071,890.5409
18.219030857,202.7805,-32.62412,-1.76946,-1.016033,-0.1524768,-4.172258,15.85517,26.59863,-11.32255,890.5428
18.239049435,73.12971,-49.7513,4.691687,-0.08093043,0.5726947,1.44551,15.85517,26.59863,-11.32255,890.5428
18.259067059,-12.01135,68.24903,-2.135186,-0.560582,-0.07552207,-1.257558,15.85517,26.59863,-11.32255,890.5413
18.279085159,-164.3172,132.092,6.825084,-1.349581,0.7531707,-2.568103,16.55574,30.19291,-10.43585,890.5413
18.299103260,102.7413,-58.61018,-7.925836,0.1763984,-0.9231819,0.2449524,16.55574,30.19291,-10.43585,890.5448
18.319121361,130.6292,-71.36697,-0.3675133,-0.3028921,0.9631247,0.3871586,15.0937,26.59595,-7.099867,890.5448
18.339138985,-93.5202,47.51925,-5.609576,0.6097431,1.170346,0.133152,15.0937,26.59595,-7.099867,890.5416
18.359157562,-130.9502,89.45129,3.899282,0.1832438,-0.9010403,-3.097991,15.0937,26.59595,-7.099867,890.5416
18.379175186,102.0641,-106.2119,-4.268583,0.8682495,-0.148405,-0.5345104,16.50493,35.57827,-10.42182,890.5433
18.399193287,96.09255,114.079,-2.439957,-1.09877,0.5837486,-1.679822,16.50493,35.57827,-10.42182,890.5433
18.419211388,-67.54079,59.86263,2.802106,0.104177,0.6495335,-0.9910894,12.22204,24.87746,-8.4363,890.5436
18.439229488,128.9054,-24.76925,5.17932,0.4944388,0.348254,0.2762455,12.22204,24.87746,-8.4363,890.5436
18.459247112,22.4637,957.4447,63.45155,6.163589,-2.223533,-5.372232,12.22204,24.87746,-8.4363,890.5436
18.479265690,-28.14075,1934.521,108.192,16.0168,0.2810203,-15.76728,24.70893,24.77712,-39.98405,890.5453
18.499283314,-58.42953,1808.075,60.83052,-5.581751,-0.4261115,-15.83805,24.70893,24.77712,-39.98405,890.5453
18.519301891,-80.5305,142.3683,-7.925836,0.006853756,0.4282998,-0.3641998,37.09259,25.28119,-53.12037,890.537
18.539319515,-556.6555,10.54817,42.72712,1.376923,-4.380207,-1.521212,37.09259,25.28119,-53.12037,890.537
18.559337616,-163.3937,-110.287,4.630732,-1.746646,-0.2142955,0.3740343,37.09259,25.28119,-53.12037,890.5388
18.579355717,-546.8671,196.2894,63.26869,2.11303,-5.563861,-6.513087,-28.67569,19.44643,1.073408,890.5388
18.599373818,68.57407,203.2584,37.11933,-0.6205661,0.5124568,1.112457,-28.67569,19.44643,1.073408,890.5374
18.619391441,203.4577,-53.29485,-27.24832,-1.523862,1.096456,0.7483776,-18.52555,14.51234,12.2843,890.5374
18.639410019,-6.655403,300.1156,12.92051,-2.160632,-0.1372742,-1.337278,-18.52555,14.51234,12.2843,890.5391
18.659427643,130.0751,7.358973,0.7906168,1.221055,-1.307125,-0.04447256,-18.52555,14.51234,12.2843,890.5391
18.679445744,-394.4997,-162.6725,9.141345,2.644394,-4.930961,0.02255215,-25.5989,28.98895,19.53728,890.5394
18.699463844,35.33028,51.18092,8.77562,-0.7109504,-0.2460351,-1.693741,-25.5989,28.98895,19.53728,890.5394
18.719481945,122.8723,-5.456879,-14.99652,-1.160129,1.660342,4.414694,-9.201591,25.54751,11.52647,890.543
18.739499569,224.5737,73.38718,-10.54687,0.3002754,-0.9255507,-1.603572,-9.201591,25.54751,11.52647,890.543
18.759518147,231.3456,99.19607,14.38341,-0.1061365,0.3681715,0.1688034,-9.201591,25.54751,11.52647,890.5447
18.779535771,-364.2109,138.3523,27.12284,2.005158,-1.006751,5.026304,-22.68276,25.74882,21.29617,890.5447
18.799553395,235.7165,-24.47395,-1.220872,0.5750974,0.2946172,-0.5273746,-22.68276,25.74882,21.29617,890.545
18.819571972,606.3848,18.4621,-4.5124,-0.1593878,0.8090573,1.90764,-13.21944,25.60879,14.10309,890.545
18.839590073,-57.32141,-111.0548,-5.426713,-0.5062729,1.960068,6.363192,-13.21944,25.60879,14.10309,890.5468
18.859607697,344.0666,-40.24276,-9.023012,-0.3261468,0.1375454,0.8097398,-16.89857,26.31926,21.34936,890.5468
18.879626274,205.9818,252.0414,-1.098964,0.9945929,-0.3971582,1.100599,-16.89857,26.31926,21.34936,890.5453
18.899643898,15.81494,1932.572,72.47278,10.92456,-0.4336969,-15.7885,-16.89857,26.31926,21.34936,890.5453
18.919661522,-248.781,1934.521,82.835,3.143948,1.374414,-15.79692,-7.320874,28.47826,-11.52447,890.5453
18.939680099,231.3456,-110.7004,-30.29603,1.398492,0.2062931,3.0011,-7.320874,28.47826,-11.52447,890.5453
18.959698200,-196.145,-26.18667,3.716419,0.2942189,0.477766,-1.209825,12.27998,4.81228,-41.82811,890.5435
18.979715824,98.24724,19.58423,-5.914347,-0.01616334,0.1543639,-0.5428742,12.27998,4.81228,-41.82811,890.5435
18.999734402,71.09814,-51.52307,1.887793,-1.017556,0.123212,-0.167864,12.27998,4.81228,-41.82811,890.542
19.019752026,-98.19896,38.24695,4.569778,0.05474914,-0.005666501,-1.294262,5.064243,22.82265,-13.97921,890.542
19.039769650,46.34998,-61.03161,-1.76946,-0.1350035,0.260508,-0.9742562,5.064243,22.82265,-13.97921,890.5456
19.059788227,-124.6093,97.48335,7.556535,0.6910499,0.827039,-1.427489,14.0393,29.50497,-10.89556,890.5456
19.079805851,238.179,-173.126,-11.94881,0.2750559,0.2857322,-0.1534536,14.0393,29.50497,-10.89556,890.5441
19.099823952,-57.5061,-14.8473,-9.754462,-0.457004,-0.2468855,0.5617071,14.0393,29.50497,-10.89556,890.5441
19.119842529,-19.46042,96.65652,3.411648,-0.4521716,0.5608091,-2.884887,16.19876,29.83878,-12.18155,890.5458
19.139860153,-20.3223,-26.12761,0.4248915,-0.1617794,-0.9315524,-0.6170424,16.19876,29.83878,-12.18155,890.5458
19.159877777,20.18588,25.84451,2.436381,0.3591846,-0.3095819,-0.1909827,13.27783,29.50229,-6.672877,890.5461
19.179896355,-42.23857,-108.7515,1.887793,-0.04899605,1.64214,0.9467105,13.27783,29.50229,-6.672877,890.5461
19.199913979,-148.434,140.5375,3.655465,-0.3722494,-0.04927153,-0.5818645,13.27783,29.50229,-6.672877,890.548
19.219932079,9.350868,88.62447,9.385161,-0.3506345,-0.906842,-3.794362,18.69617,32.29982,-11.28185,890.548
19.239950180,131.8604,27.49817,-3.232362,-0.05534917,0.6879917,0.3899722,18.69617,32.29982,-11.28185,890.5464
19.259968281,-33.86606,-10.41785,-8.291561,-0.7084067,-0.05585453,-1.916324,9.256982,31.34805,-6.703821,890.5464
19.279985905,-100.4768,79.23405,8.592757,-0.9223572,-0.4402452,-2.160741,9.256982,31.34805,-6.703821,890.5482
19.300004482,-16.32073,106.2241,4.569778,0.4823766,1.396994,-0.6161128,9.256982,31.34805,-6.703821,890.5482
19.320022106,544.0834,1934.521,17.67493,11.45436,1.830853,1.288661,19.55864,25.47417,-22.42602,890.5467
19.337538242,23.14089,1934.521,116.7865,14.35367,1.841004,-15.75308,19.55864,25.47417,-22.42602,890.5467
19.357555866,-24.38543,1278.609,44.06811,-6.117968,0.7312344,-14.1416,40.65482,15.80115,-22.69903,890.5467
19.377574444,-64.52423,17.1628,5.605999,-0.5225981,-0.06857719,0.1025792,40.65482,15.80115,-22.69903,890.5396
19.397592068,-349.8668,84.72655,31.32868,-0.02113958,-0.3355667,1.133806,40.65482,15.80115,-22.69903,890.5396
19.417609692,-203.04,-189.4264,7.007946,-1.6274,1.574382,2.413453,-13.45309,20.59844,-2.643852,890.5396
19.437628269,24.12589,214.4206,26.75711,-0.514639,-4.372024,-6.458939,-13.45309,20.59844,-2.643852,890.5396
19.457646370,114.6229,4.051656,5.605999,-0.6398867,-2.06227,-2.621654,-25.76975,12.50264,11.34342,890.5381
19.477663994,-329.2433,-386.8613,-14.93557,-1.554866,4.66066,8.323074,-25.76975,12.50264,11.34342,890.5381
19.497681618,-139.3228,225.9962,9.50707,-0.5321015,-0.3406503,-1.593983,-25.76975,12.50264,11.34342,890.5417
19.517700195,197.1783,171.1302,13.34719,-1.292102,0.5365964,-0.5836424,-22.20878,16.39044,18.22751,890.5417
19.537717819,-455.4466,54.72447,44.43384,1.551317,-3.892807,0.2829484,-22.20878,16.39044,18.22751,890.5422
19.557735920,246.2437,-62.50809,-19.20237,-1.379045,-1.160567,-4.388953,-5.384382,38.7574,11.59609,890.5422
19.577754021,-570.7534,-389.1056,4.02119,0.5438464,2.881741,9.210826,-5.384382,38.7574,11.59609,890.5389
19.597772122,-87.6102,-45.55809,-11.64404,0.2103171,0.51454,1.116904,-5.384382,38.7574,11.59609,890.5389
19.617789745,279.549,75.74955,16.02917,-1.689462,0.4182953,1.163539,-21.48396,17.41443,19.10751,890.5407
19.637808323,112.7144,414.6905,2.497335,1.407116,-0.3880943,3.578839,-21.48396,17.41443,19.10751,890.5407
19.657825947,183.9424,-66.93753,-16.45943,0.657497,-1.548454,-1.931826,-11.10805,29.85134,14.94193,890.5392
19.677844048,593.5182,46.16088,4.996458,0.001212225,1.433884,3.704683,-11.10805,29.85134,14.94193,890.5392
19.697862148,-26.72481,-92.6283,-0.1236965,0.6913506,-1.846424,0.6673762,-11.10805,29.85134,14.94193,890.541
19.717880249,236.8862,-141.7656,-8.413469,0.8174577,-1.325072,-0.5473065,-17.21505,23.83763,15.742,890.541
19.737897873,150.4523,255.703,11.03093,0.8644073,0.7130688,0.8620479,-17.21505,23.83763,15.742,890.5377
19.757916451,6.272739,1934.521,61.80579,6.760259,1.980103,-15.39116,-4.195155,34.79033,3.448045,890.5377
19.777934075,-220.6469,1934.521,108.4967,-0.5602381,-0.450847,-15.82317,-4.195155,34.79033,3.448045,890.5342
19.797952175,177.3552,91.93178,-23.46916,0.9094341,0.9844583,2.276089,7.105428,15.76372,-49.55747,890.5342
19.817970276,-168.565,-5.988412,1.765884,1.004784,-0.05885686,0.08695979,7.105428,15.76372,-49.55747,890.5342
19.837988377,9.843369,25.60827,6.093633,0.02331331,0.9315568,-0.1783317,7.105428,15.76372,-49.55747,890.5342
19.858006001,64.08001,-38.70722,-3.963812,0.008920142,-0.1834472,-0.01610367,0.09924026,8.910308,-17.04649,890.5327
19.878023624,-16.99792,-17.68214,1.156342,0.08814657,0.7689205,-0.3302153,0.09924026,8.910308,-17.04649,890.5327
19.898042202,-70.12643,7.122736,7.800352,0.2457971,0.1016537,-1.739196,12.56544,29.53445,-11.77942,890.5363
19.918060303,-117.0371,101.0269,3.533556,0.7838177,0.3392353,-1.408061,12.56544,29.53445,-11.77942,890.5363
19.938077927,210.7836,-123.7525,-14.87462,0.3997329,0.4354685,0.1167725,12.56544,29.53445,-11.77942,890.5366
19.958096504,-112.7893,14.85949,-7.742974,0.1284693,-0.207016,-0.662829,14.43258,26.98932,-10.89882,890.5366
19.978114128,65.00345,23.95461,0.1201204,-0.2306386,0.3716229,-0.361035,14.43258,26.98932,-10.89882,890.5383
19.998131752,-49.44139,51.94869,-0.1846507,0.5095989,-0.3504564,-0.4720413,12.90549,30.98548,-8.78696,890.5383
20.018150330,65.24969,-74.85147,-4.756217,-1.426411,-0.4107257,0.4332762,12.90549,30.98548,-8.78696,890.5386
20.038167954,-111.558,33.28597,2.558289,0.1751461,0.6169701,-0.2205791,12.90549,30.98548,-8.78696,890.5386
20.058186054,-177.43,144.6717,5.240274,-0.1484568,-0.3517297,-1.975065,16.58288,27.31663,-10.44334,890.5403
20.078203678,154.0229,-22.76123,0.4858457,-0.2104004,0.5755951,-1.924574,16.58288,27.31663,-10.44334,890.5403
20.098222256,-0.86852,98.84171,-4.085721,0.0965869,0.3836983,-0.99428,8.855542,35.70612,-8.437241,890.5406
20.118239880,96.27724,-106.1529,-10.18114,0.5310231,-0.654117,-0.1831741,8.855542,35.70612,-8.437241,890.5406
20.138257980,-15.64354,-9.827262,3.28974,-0.1714558,0.0770674,-1.0155,8.855542,35.70612,-8.437241,890.5425
20.158276081,-84.40894,101.145,-3.171407,0.582177,0.6467028,-1.399357,16.26651,23.35651,-13.44234,890.5425
20.178294182,206.1049,1934.521,23.46558,15.6088,8.710669,6.70861,16.26651,23.35651,-13.44234,890.5442
20.198311806,-87.97958,1934.521,99.96313,9.00534,1.124888,-15.78137,34.16236,16.99078,-31.71038,890.5442
20.218330383,74.91502,223.5748,2.984969,-2.55157,0.1425095,-4.0923,34.16236,16.99078,-31.71038,890.5356
20.238348007,-234.8679,117.2091,22.55127,-1.650913,0.6908529,-1.473822,34.16236,16.99078,-31.71038,890.5356
20.258366108,-307.2039,-74.79241,44.06811,2.0637,-2.655891,3.404053,-9.807754,26.33274,-14.97336,890.5356
20.278384209,-352.6371,-287.0512,14.68818,-1.286774,1.601604,2.842741,-9.807754,26.33274,-14.97336,890.5374
20.298402309,-13.2426,105.4563,19.93024,-1.521013,-4.349433,-9.36819,-26.90222,17.92695,6.185431,890.5374
20.318419933,144.4807,-22.17064,14.99295,0.6861857,0.1352199,1.131135,-26.90222,17.92695,6.185431,890.5359
20.338437557,-456.0007,-284.8661,-17.12992,3.404142,0.2040893,9.004968,-26.90222,17.92695,6.185431,890.5359
20.358456135,129.4595,63.64241,-2.257094,-2.104855,0.2140486,-3.303856,-17.77575,6.604233,12.70512,890.5359
20.378473759,326.275,-10.94939,-0.4894218,-0.0919259,-0.1429839,2.585496,-17.77575,6.604233,12.70512,890.5359
20.398491860,98.55505,306.553,35.1688,0.3063492,0.1130341,2.038547,-15.60259,49.01979,15.38874,890.5344
20.418510437,21.4787,-135.2691,-17.61756,0.5107026,-1.68197,-1.277787,-15.60259,49.01979,15.38874,890.5344
20.438528061,-280.6089,-343.0394,-17.31279,0.5985293,2.854083,7.617935,-15.60259,49.01979,15.38874,890.533
20.458545685,6.149614,29.9196,-3.232362,0.3525925,-1.265481,-0.9588571,-15.95712,9.446099,13.16439,890.533
20.478563786,40.13216,-62.38997,1.765884,-2.020295,2.115534,2.795998,-15.95712,9.446099,13.16439,890.5364
20.498581886,283.9815,354.391,15.90726,-0.5387428,-1.386073,-3.501781,-18.06525,33.93716,18.74709,890.5364
20.518599987,417.0183,35.76646,-4.93908,-0.6560872,-0.4502426,-1.649855,-18.06525,33.93716,18.74709,890.5352
20.538617611,331.631,94.35321,7.556535,0.4958667,1.054106,4.369238,-18.06525,33.93716,18.74709,890.5352
20.558636189,0.3011692,-24.23771,-2.439957,-0.07349584,-1.80713,-0.2443007,-15.04094,23.07291,13.64461,890.5352
20.578653813,242.5499,-65.46105,0.2420289,0.2076971,0.2984563,0.1764161,-15.04094,23.07291,13.64461,890.5352
20.598671913,-44.20858,560.2714,48.51777,3.356154,-0.1824613,0.2181302,-22.34676,30.7702,18.70034,890.5319
20.618689537,-17.98292,1934.402,62.90297,16.01676,0.3232942,-15.76693,-22.34676,30.7702,18.70034,890.5319
20.638708115,-98.19896,1933.989,83.32263,-7.435129,0.7222371,-15.83412,-5.722322,16.63031,-24.79032,890.5284
20.658725739,90.2441,162.0351,-14.87462,-2.039221,0.8530949,-1.392483,-5.722322,16.63031,-24.79032,890.5284
20.678743363,-207.7188,22.47813,15.90726,0.6512293,-0.3918798,-0.7642426,-5.722322,16.63031,-24.79032,890.5251
20.698761940,-56.09016,14.32796,0.0591662,-0.614224,-0.5220115,-3.115608,3.383377,10.65266,-23.85431,890.5251
20.718779564,130.2598,41.4952,-9.14492,0.150075,0.43506,0.4493673,3.383377,10.65266,-23.85431,890.5269
20.738797665,-166.164,46.63336,15.54154,0.07195914,0.5745572,-0.9710333,10.77861,30.30515,-13.03728,890.5269
20.758815289,-65.44767,-16.1466,6.215542,0.0510818,-1.060169,-2.399675,10.77861,30.30515,-13.03728,890.5272
20.778833866,-126.2099,196.821,6.520313,0.2822993,-0.3706326,-2.928076,10.77861,30.30515,-13.03728,890.5272
20.798851490,163.9961,-3.448865,-9.205874,0.6601914,0.4092696,0.1782107,15.85635,26.22982,-10.88814,890.529
20.818869591,-63.84705,30.74643,2.436381,0.4456176,-0.4443662,0.3878975,15.85635,26.22982,-10.88814,890.529
20.838887692,24.67995,-43.13666,0.4858457,0.8555782,0.5304523,0.6054249,16.18038,30.56502,-10.00281,890.5325
20.858905792,-43.71608,37.42012,-3.35427,-0.360177,-0.8501078,-2.786628,16.18038,30.56502,-10.00281,890.5325
20.878923416,63.52594,62.34311,-1.76946,-0.3873053,-0.8776342,-2.556976,16.18038,30.56502,-10.00281,890.5328
20.898941040,-78.99144,21.11977,5.849816,-0.2607164,-0.3251598,-1.294958,15.09599,26.59757,-7.535231,890.5328
20.918959618,-143.8168,62.16593,4.44787,0.2396303,0.7233986,-1.517148,15.09599,26.59757,-7.535231,890.5364
20.938977718,9.658681,4.760367,-3.476178,0.06095001,0.5655757,-0.7464928,15.39264,35.96513,-10.43071,890.5364
20.958995342,72.32939,81.53736,-3.659041,0.3625863,-0.310291,-1.420503,15.39264,35.96513,-10.43071,890.5367
20.979012966,126.3813,-9.059492,-1.952323,0.4834332,0.5876258,-0.5131457,15.39264,35.96513,-10.43071,890.5367
20.999031544,-95.12083,32.40009,-2.744728,-0.2035196,-0.4648411,-2.035106,12.59362,24.8723,-8.806187,890.5402
21.019049168,-74.00487,67.95374,-3.35427,1.000032,-0.5281335,-0.5203501,12.59362,24.8723,-8.806187,890.5402
21.039067268,-267.5576,1925.544,30.902,16.01141,-0.424305,-10.67387,25.42693,25.05698,-36.49378,890.5388
21.059085846,-178.7844,1934.521,118.0056,5.540602,3.322802,-15.77358,25.42693,25.05698,-36.49378,890.5388
21.079103470,33.79121,202.7859,-11.40023,-1.437736,-0.2001508,-2.557421,25.42693,25.05698,-36.49378,890.5333
21.099121094,-159.1459,11.375,17.67493,-1.816589,2.713651,1.622283,23.29651,29.11788,-48.50618,890.5333
21.119139195,-158.715,110.2401,22.73413,1.74599,-1.214664,3.621807,23.29651,29.11788,-48.50618,890.5336
21.139157295,-373.4453,-178.1461,7.312718,0.6895151,2.050411,4.809976,-36.6593,24.24328,-0.2911539,890.5336
21.159175396,56.07687,131.5014,15.78535,-1.619354,-2.336374,-4.09022,-36.6593,24.24328,-0.2911539,890.5355
21.179193020,52.81405,1.748346,6.398405,1.938238,-0.9377465,0.3713889,-36.6593,24.24328,-0.2911539,890.5355
21.199211597,-355.8384,-140.9388,3.594511,1.578221,-1.459019,4.319794,-18.89516,14.5189,12.28102,890.5339
21.219229221,220.3874,83.36819,-12.19263,-0.9734403,1.13637,-1.009621,-18.89516,14.5189,12.28102,890.5339
21.239247322,97.38536,-46.08962,1.826838,1.333218,-1.501228,3.218657,-24.85968,28.97583,19.54385,890.5339
21.259264946,26.09589,195.4626,46.56723,-0.2606324,-0.8692802,-2.63479,-24.85968,28.97583,19.54385,890.5375
21.279283524,122.3798,-48.74729,-14.26507,0.190755,0.04460619,-0.6107972,-24.85968,28.97583,19.54385,890.5375
21.299301148,-633.1778,-165.4483,18.46734,3.534708,0.8436157,8.899541,-8.899935,26.21522,11.53096,890.536
21.319318771,56.13843,-294.4337,-6.767706,0.6233235,-0.6820801,0.3164114,-8.899935,26.21522,11.53096,890.536
21.339336872,94.3688,-122.1579,1.156342,-1.052132,1.907542,4.251358,-21.9274,24.26859,20.86354,890.5395
21.359354973,265.4512,314.0536,21.21028,-1.106946,-3.584788,-5.840644,-21.9274,24.26859,20.86354,890.5395
21.379373074,489.2928,9.071691,-10.12019,1.041701,-1.575014,0.5469998,-21.9274,24.26859,20.86354,890.5398
21.399390698,271.9153,7.122736,-1.220872,0.5402801,1.450259,2.889977,-13.222,25.91501,14.04169,890.5398
21.419408798,15.93806,-36.87638,2.802106,-0.1140826,-0.8847658,0.3516487,-13.222,25.91501,14.04169,890.5416
21.439426899,433.2708,15.03667,-5.121943,1.059931,0.5029041,3.075006,-17.63975,26.33098,21.71596,890.5416
21.459445000,50.65936,622.5198,40.95945,4.950865,-0.4511313,-0.7411812,-17.63975,26.33098,21.71596,890.5419
21.479462624,-17.30573,1934.461,56.68563,16.01693,0.1274735,-15.76855,-7.699613,25.89084,-5.19057,890.5419
21.499481201,-100.3537,1926.429,75.39858,-7.772676,-0.6270228,-15.8463,-7.699613,25.89084,-5.19057,890.5383
21.519498825,37.48497,156.7197,-6.82866,-2.011816,0.8075734,-1.388912,-7.699613,25.89084,-5.19057,890.5383
21.539516449,-216.9532,76.9898,14.01768,0.3695922,-0.4479064,-1.875266,8.171802,11.33981,-33.69924,890.5353
21.559534550,53.42968,-20.69416,-11.46118,0.3255362,-0.3683688,-1.459745,8.171802,11.33981,-33.69924,890.5353
21.579553127,53.18343,-35.6952,-1.830415,0.1413401,0.6665721,0.6440207,3.206921,24.32743,-14.86253,890.5371
21.599570751,-182.0472,74.50931,13.04241,-0.16947,0.207443,-1.967115,3.206921,24.32743,-14.86253,890.5371
21.619588375,19.69338,-45.67621,-4.573355,0.2731493,-0.3564119,-1.392167,3.206921,24.32743,-14.86253,890.5374
21.639606476,-121.1002,226.2325,9.446115,0.06846964,-0.6092302,-4.211913,12.93511,28.78865,-10.47196,890.5374
21.659624577,209.4908,-31.91541,-5.426713,0.1288246,0.3372532,1.134515,12.93511,28.78865,-10.47196,890.5392
21.679642677,-69.20299,40.01873,-0.4284675,0.2247605,-0.6608528,-0.33923,16.19535,29.46672,-10.87641,890.5392
21.699660301,-79.053,72.56036,8.409894,0.2976017,1.100798,-0.796907,16.19535,29.46672,-10.87641,890.5377
21.719677925,18.83151,5.882492,-5.365759,0.1980987,-0.4735752,-1.492884,16.19535,29.46672,-10.87641,890.5377
21.739696503,100.2788,40.66838,-1.525643,-0.7831052,-1.180761,-2.002679,13.64397,29.86292,-6.668638,890.5395
21.759714604,-69.20299,-6.638063,6.825084,-0.7766399,0.2655584,-1.481963,13.64397,29.86292,-6.668638,890.5395
21.779732228,-180.8159,93.17203,2.924014,-0.1739232,0.4175805,-2.4886,17.66798,30.5453,-11.73114,890.5397
21.799749851,28.68152,53.01176,-3.049499,-0.5182927,-0.5863422,-1.521093,17.66798,30.5453,-11.73114,890.5397
21.819768429,171.5067,122.7016,1.27825,0.3178836,0.3204672,-0.8540354,17.66798,30.5453,-11.73114,890.5416
21.839786053,19.75494,11.72936,-8.962058,0.4137626,0.168557,-0.3984627,9.24659,32.4496,-6.700951,890.5416
21.859804154,-68.58736,-23.8243,-4.756217,0.4198898,-1.177342,-2.140587,9.24659,32.4496,-6.700951,890.5419
21.879821777,-89.45708,156.8379,9.689933,0.3562862,-0.3846573,-1.412442,18.43587,24.80627,-18.58154,890.5419
21.899840355,-287.1345,1926.311,33.0354,16.01192,-0.2069567,-11.27113,18.43587,24.80627,-18.58154,890.5419
21.919857979,-162.8397,1934.521,104.9614,5.31917,2.783698,-15.77871,18.43587,24.80627,-18.58154,890.5419
21.939876080,74.23783,197.825,6.276496,-3.405938,-1.08328,-4.852398,42.55518,19.79315,-51.3448,890.5364
21.959893703,-227.8497,-98.06174,21.81982,-2.46278,3.169991,1.751662,42.55518,19.79315,-51.3448,890.5364
21.979912281,-212.8285,29.50618,14.13959,-0.1106356,-1.16151,2.607924,3.211559,23.59143,-14.42908,890.5314
21.999929905,-565.028,-186.0009,21.27123,0.026608,0.2588011,2.078529,3.211559,23.59143,-14.42908,890.5314
22.019947529,81.37909,184.1823,9.019436,0.3547507,-4.582221,-6.211195,3.211559,23.59143,-14.42908,890.535
22.039965630,322.5813,104.2752,-14.69175,0.9657186,1.110881,2.118845,-22.477,10.67789,9.253175,890.535
22.057481289,-287.9348,-238.5046,-22.06721,0.4908378,0.2291655,3.424185,-22.477,10.67789,9.253175,890.5317
