Time (s),Gyroscope X (deg/s),Gyroscope Y (deg/s),Gyroscope Z (deg/s),Accelerometer X (g),Accelerometer Y (g),Accelerometer Z (g),Magnetometer X (uT),Magnetometer Y (uT),Magnetometer Z (uT),Barometer (hPa)
0.007875443,0.07715073,0.04910471,0.06577028,-0.01072848,0.1260564,0.9878885,9.887611,4.832629,20.67598,890.5294
0.027699471,0.2637249,0.0490554,-0.05672557,-0.01077637,0.1264344,0.9787899,9.881317,4.463837,20.30918,890.5294
0.047523022,0.01433222,-0.06865199,0.004332632,-0.01127466,0.125923,0.9768758,9.881317,4.463837,20.30918,890.5294
0.067347050,0.0137879,0.1670954,-0.0567477,-0.01275771,0.1308229,0.9802299,9.170012,4.484788,21.13213,890.5294
0.087170601,-0.1728192,-0.009802043,0.004310496,-0.01124404,0.1269819,0.9840584,9.170012,4.484788,21.13213,890.5328
0.106995106,-0.1102271,-0.1866252,0.06554179,-0.01424305,0.1293117,0.9764028,9.170012,4.484788,21.13213,890.5328
0.126819134,0.07660258,0.1080904,0.1267539,-0.01468735,0.1249879,0.9811938,9.52064,4.838108,20.68309,890.5328
0.146642685,0.07629285,-0.009598672,0.004354633,-0.01025327,0.1245415,0.9830992,9.52064,4.838108,20.68309,890.5328
0.166462421,0.1385723,-0.06844993,0.06545143,-0.009264696,0.1216031,0.9811822,9.514347,4.469316,20.3163,890.5328
0.186286449,-0.1725669,0.1671676,0.1877907,-0.008310562,0.1274514,0.9816572,9.514347,4.469316,20.3163,890.5328
0.206110954,0.07653832,-0.0684759,0.004226342,-0.01223977,0.1299032,0.9845388,9.514347,4.469316,20.3163,890.5328
0.228412628,-0.2348794,-0.009536624,0.06547576,-0.01323693,0.1303573,0.9821466,9.512606,4.468547,20.25409,890.5328
0.248236179,0.2012675,-0.1273926,-0.05669293,-0.01123106,0.1181437,0.9773568,9.512606,4.468547,20.25409,890.5328
0.268060207,0.1386235,-0.1862624,0.004557021,-0.01271803,0.1269761,0.9840618,9.149517,5.207767,20.68376,890.5328
0.287883759,0.1385296,-0.1862386,0.06557652,-0.004890243,0.1333323,0.9840419,9.149517,5.207767,20.68376,890.5328
0.307708263,0.2006334,0.1083465,0.0654311,-0.005913541,0.1396367,0.9826058,9.149517,5.207767,20.68376,890.5328
0.327532291,-0.1728588,0.04903285,0.004274279,-0.01326077,0.1303002,0.9773579,9.52064,4.838108,20.68309,890.5328
0.347355843,0.07642314,-0.009891704,-0.1180095,-0.00830245,0.1250072,0.9807002,9.52064,4.838108,20.68309,890.531
0.367175579,-0.1725191,-0.1277099,-0.05672068,-0.01071427,0.1201776,0.9845381,9.524794,4.473928,20.68955,890.531
0.386999607,0.1381969,-0.06862476,0.004337475,-0.009770541,0.1343776,0.9917148,9.524794,4.473928,20.68955,890.531
0.406824112,0.01431517,-0.1278086,-0.05687725,-0.01665056,0.119565,0.9759323,9.524794,4.473928,20.68955,890.531
0.426647663,-0.6705757,-0.1278576,0.1264544,-0.01566524,0.1249954,0.9821538,9.52064,4.838108,20.68309,890.531
0.446471214,-0.1724667,-0.06893873,0.1263673,-0.01469785,0.1274264,0.9816719,9.52064,4.838108,20.68309,890.531
0.466295242,0.01299813,9.889534,0.7990434,0.2254147,0.1275217,0.9509484,9.524794,4.473928,20.68955,890.531
0.486118794,2.317193,-7.489589,0.248382,0.3577304,0.1402205,0.9927796,9.524794,4.473928,20.68955,890.531
0.508421421,2.690847,-12.14366,0.1871974,0.4568973,0.1957129,0.8392959,8.397093,4.844553,19.89573,890.5328
0.528244972,27.91244,-36.2977,-2.137817,0.615987,0.2206982,1.331678,8.397093,4.844553,19.89573,890.5328
0.548069000,22.61902,8.770201,-2.137817,0.8520082,0.1838515,0.9379915,8.397093,4.844553,19.89573,890.531
0.567888737,72.43946,-3.778116,-2.933217,0.6774381,0.1281184,0.8512568,7.925091,6.694731,16.88349,890.531
0.587712288,62.84903,28.56473,-6.237185,0.7513683,1.582472,2.130678,7.925091,6.694731,16.88349,890.5344
0.607536793,-60.76794,-58.74327,6.550395,0.6851836,0.06073646,-0.3143101,4.378757,12.15461,12.55953,890.5344
0.627360821,46.59511,30.50883,-15.59843,0.8565339,0.9848238,1.799233,4.378757,12.15461,12.55953,890.5344
0.647184372,1.632162,-20.15573,0.9214125,0.6673277,0.6220348,1.021134,4.378757,12.15461,12.55953,890.5344
0.667008400,253.7859,-61.98345,-4.462832,1.730008,1.74878,2.573718,1.995274,18.75653,8.690254,890.5344
0.686831951,-150.5693,43.64627,-1.281233,1.360246,0.689858,-0.540165,1.995274,18.75653,8.690254,890.5344
0.706656456,23.36633,-70.29008,-7.644431,0.8706933,0.582734,0.6773263,-0.873539,20.85851,-1.127619,890.5344
0.726480484,-120.0543,-22.09984,4.714858,-0.3341319,0.4027951,-1.079684,-0.873539,20.85851,-1.127619,890.5344
0.746304035,323.0363,-20.80377,-9.908261,0.7603412,-1.219881,1.748383,-0.873539,20.85851,-1.127619,890.5327
0.766123772,24.61184,-29.1104,-8.133907,0.2025519,2.027326,-0.127491,-6.001177,22.06557,1.939872,890.5327
0.785947800,18.19746,58.90456,-1.036495,1.135044,1.609025,2.925187,-6.001177,22.06557,1.939872,890.5344
0.808249951,236.9092,-196.7159,-2.44374,2.759975,0.737305,5.917976,-5.692228,23.92554,0.5930262,890.5344
0.828073979,333.4986,-0.5379398,4.34775,0.5761337,0.4085686,2.492495,-5.692228,23.92554,0.5930262,890.5327
0.847897530,-286.3922,-102.7508,9.181333,-0.8663928,1.44878,-1.080197,-5.692228,23.92554,0.5930262,890.5327
0.867721558,107.812,85.70965,-12.11091,1.950191,1.296178,2.207964,-9.700014,8.870035,-4.163019,890.5308
0.887545109,42.7963,56.01785,12.73004,2.573247,0.6665042,5.060772,-9.700014,8.870035,-4.163019,890.5308
0.907369614,147.606,-13.08626,-10.27537,-0.1465327,-0.9355978,-0.5544047,-6.226885,25.48853,8.295322,890.5308
0.927193165,520.3253,75.39999,-4.218093,3.022417,4.204725,5.67213,-6.226885,25.48853,8.295322,890.5308
0.947017193,-377.9373,88.65526,-4.952309,0.7594439,-0.04307726,-0.3125357,-6.226885,25.48853,8.295322,890.5308
0.966836929,-324.3181,-65.1058,8.385933,0.6808989,-0.518967,1.345632,-6.725668,32.75607,6.431514,890.5308
0.986660957,155.2037,-3.601379,0.554305,0.1479817,1.510032,3.805743,-6.725668,32.75607,6.431514,890.5324
1.006484985,-210.6029,89.18547,-9.357599,0.009887428,1.383401,0.4520961,-8.794622,30.65152,10.36988,890.5324
1.026309013,-406.6463,254.4344,22.64194,4.275211,-1.710514,3.918785,-8.794622,30.65152,10.36988,890.5324
1.046132565,163.86,1778.142,15.78927,9.092858,-1.535828,1.179484,-8.794622,30.65152,10.36988,890.5324
1.065956593,157.9438,1930.077,-284.3212,16.02472,0.9149873,-15.74326,-22.1624,24.15508,32.91273,890.5289
1.088258266,-68.98831,1382.664,-24.77612,-4.117283,0.2754379,-6.920778,-22.1624,24.15508,32.91273,890.5289
1.108082771,-118.2483,-207.2611,22.88668,-0.5698039,-0.7459559,-0.3020759,-14.30403,18.78754,20.90124,890.5289
1.127906323,214.3032,-24.3385,-19.02477,-0.7438141,0.3632545,-2.465532,-14.30403,18.78754,20.90124,890.5289
1.147730351,-206.8041,66.03294,8.87541,-0.6414489,0.1265005,-0.4400805,-14.30403,18.78754,20.90124,890.5289
1.167550087,-54.72721,-18.74184,4.164196,-0.2888251,-0.4124116,-1.232788,33.62049,14.74109,-12.71557,890.5289
1.187373638,-17.92236,7.238482,-0.3022794,-0.4402027,0.1921916,-0.9965324,33.62049,14.74109,-12.71557,890.5289
1.207198143,238.5284,41.46652,-21.53333,0.522943,-0.8825455,-2.980005,24.33143,24.79865,-10.59668,890.5289
1.227022171,-196.9023,-13.61647,18.66494,1.548876,-1.444263,0.1337943,24.33143,24.79865,-10.59668,890.5289
1.246845722,136.4587,89.12656,-7.154954,-0.1605569,-0.2318032,-2.207158,24.33143,24.79865,-10.59668,890.5289
1.266669750,11.34715,-40.48047,-4.462832,0.3943959,-0.1162009,-0.774738,24.03575,26.69358,-5.14628,890.5289
1.286493301,65.65143,-30.11191,-0.6082023,0.1711942,0.9356515,-0.6710947,24.03575,26.69358,-5.14628,890.5289
1.306317329,-0.8588595,-56.4457,-1.281233,-1.068971,0.6786216,-0.06573629,32.31491,24.83697,-26.9411,890.5289
1.326141834,-92.03026,45.76712,2.267474,-0.9645024,1.252434,-0.8649004,32.31491,24.83697,-26.9411,890.5289
1.345965386,81.28259,132.6038,-9.051677,0.396477,-0.8540541,-2.792962,32.31491,24.83697,-26.9411,890.5289
1.368263245,12.28128,-49.02275,0.6154895,0.6195143,0.09095085,1.018048,6.450085,10.7707,-7.876573,890.5306
1.388086796,-168.5046,48.12361,12.36293,0.5936106,-0.2123397,-2.293666,6.450085,10.7707,-7.876573,890.5306
1.407911301,15.76871,-50.84903,-2.260186,0.6252044,-0.6935166,-0.6256947,20.95831,22.58773,-11.7358,890.5339
1.427735329,6.614207,-47.31429,0.6766742,0.5048589,-0.3753364,0.1047664,20.95831,22.58773,-11.7358,890.5339
1.447558880,52.76039,19.02094,8.202379,-0.928171,0.7904423,-0.2835012,11.30182,20.31261,-1.357241,890.5339
1.467382908,147.3569,294.4359,-3.422694,1.070485,-0.2880222,-2.514547,11.30182,20.31261,-1.357241,890.5339
1.487206459,129.6707,1930.077,-219.0372,10.96569,0.1009212,-15.45694,11.30182,20.31261,-1.357241,890.5324
1.507030964,222.4613,1930.077,-69.19613,-9.591387,-1.013516,-15.68352,3.944883,4.519712,46.38596,890.5324
1.526854515,-101.9321,132.0147,28.33211,1.534167,-1.115186,3.213822,3.944883,4.519712,46.38596,890.527
1.546678543,537.6378,186.6853,-60.75266,0.7959061,2.51645,0.542849,11.36553,-17.29868,38.53823,890.527
1.586321831,187.0887,217.3786,-39.9499,-0.0485963,0.1496781,-1.917333,11.36553,-17.29868,38.53823,890.5289
1.606146336,-190.1765,138.6129,13.15833,1.120839,-1.542944,1.671984,1.516745,16.88269,4.001781,890.5322
1.625970364,-124.289,-12.14366,7.896456,-0.5218946,-1.810355,-0.2980437,1.516745,16.88269,4.001781,890.5322
1.648272038,52.44901,46.47406,-23.2465,-1.493278,-0.1200498,-1.738172,-5.980141,19.14675,1.556045,890.5322
1.668095589,-95.76679,143.0902,-13.02868,-0.1490829,0.2099166,1.701221,-5.980141,19.14675,1.556045,890.5322
1.687919617,325.0291,53.77919,-31.68998,1.163175,1.863654,3.704168,-5.980141,19.14675,1.556045,890.5339
1.707744122,-27.63734,-265.4665,17.68599,0.6174442,0.1790725,-0.07954209,-7.923758,22.42025,-1.017009,890.5339
1.727567673,-358.0091,-14.02885,24.59985,-0.5238363,-0.8621348,-1.246958,-7.923758,22.42025,-1.017009,890.5322
1.747391701,183.7259,121.9996,-38.84858,1.221776,-1.275078,-2.097511,-4.982384,2.293663,4.391406,890.5322
1.767211437,-441.9566,16.07532,13.15833,-2.114599,-2.773642,-2.821077,-4.982384,2.293663,4.391406,890.5305
1.787034989,496.9719,-160.2491,9.915548,-0.04919019,-0.4717324,6.082368,-4.982384,2.293663,4.391406,890.5305
1.806859493,-318.4019,40.17045,16.58467,1.566172,-1.001283,0.71593,-6.343321,33.55041,7.281334,890.5322
1.826683521,-494.6417,-20.45029,-5.686524,-2.333488,-0.1691772,-1.499176,-6.343321,33.55041,7.281334,890.5322
1.846507073,-62.07572,33.63119,-5.197047,-0.1239776,0.01328967,0.6271155,-9.207701,33.62575,9.888834,890.5322
1.866331100,-199.4556,-111.0574,27.23079,0.4313054,-0.1833746,-0.05410465,-9.207701,33.62575,9.888834,890.5322
1.886154652,-262.2293,256.1429,8.08001,0.3648635,-2.450799,0.1751341,-9.207701,33.62575,9.888834,890.5322
1.905979156,-76.52365,1930.077,-104.0102,8.311954,2.22524,-12.05338,-13.53353,18.79273,22.19339,890.5322
1.928280830,152.4013,1930.077,27.41434,-7.255791,-1.52597,-15.68877,-13.53353,18.79273,22.19339,890.5305
1.948104858,-127.5896,557.3025,2.634581,-4.85947,1.23538,-3.33309,-18.98673,10.58576,33.9654,890.5305
1.967924595,80.03708,-4.308326,11.93464,-0.5651617,0.06859957,0.596513,-18.98673,10.58576,33.9654,890.5286
1.987748146,208.6984,20.25809,-9.724708,-0.5321715,0.706823,-1.837845,-18.98673,10.58576,33.9654,890.5286
2.007572651,-83.18713,72.74894,6.489211,-0.5399904,-0.2602264,-0.5058067,35.96217,12.87889,-8.49474,890.5305
2.027396679,38.37474,-5.95787,-6.787847,-0.4316497,-0.3004626,-2.448341,35.96217,12.87889,-8.49474,890.5305
2.047220230,-42.02299,-7.25394,4.959596,0.7035674,-0.5561626,-2.967588,24.32436,23.27048,-11.44071,890.5286
2.067043781,142.0635,115.2247,-22.32874,0.06831402,-0.3445167,-1.370111,24.32436,23.27048,-11.44071,890.5286
2.086867809,4.808216,94.01628,-0.2410948,0.07189997,-0.5003067,-0.7250357,24.32436,23.27048,-11.44071,890.5269
2.106692314,117.527,62.08582,-10.64248,0.07381348,-0.3031464,-1.697682,24.72437,27.73274,-8.540334,890.5269
2.126515865,-34.114,79.93624,-4.156909,0.2756349,-0.42585,-1.363383,24.72437,27.73274,-8.540334,890.5302
2.146339893,-58.33919,-97.6843,7.40698,0.2524096,-0.4543348,-0.152738,29.62316,28.64865,-16.74648,890.5302
2.166159630,-70.73203,-119.5408,11.6899,0.02958458,-0.5784615,0.4478368,29.62316,28.64865,-16.74648,890.5302
2.185983181,-176.4136,-8.491098,11.56753,-0.7317447,0.7956186,-0.690038,29.62316,28.64865,-16.74648,890.5302
2.208285809,75.49096,-33.46991,-4.401647,-0.4959814,0.08735192,-0.6702626,6.481892,-2.452722,-11.87334,890.5284
2.228109360,82.7772,46.94536,-3.973355,-0.5844811,0.3083154,-2.106253,6.481892,-2.452722,-11.87334,890.5284
2.247933388,-171.9298,91.07066,2.206289,0.2697452,0.02915667,-2.541043,20.28357,22.62482,-9.606474,890.5284
2.267756939,43.60588,24.67652,-5.319416,0.9671797,-0.4219394,-0.2434685,20.28357,22.62482,-9.606474,890.5284
2.287580967,87.38559,59.90607,-3.055586,-0.04828085,0.03930917,-1.093646,20.28357,22.62482,-9.606474,890.5284
2.307405472,-209.8556,38.57982,20.80641,0.8930548,1.038338,1.010435,12.38091,16.99242,-3.435603,890.5284
2.327229023,580.6702,1838.762,-231.886,12.31532,0.6539625,-9.63238,12.38091,16.99242,-3.435603,890.5284
2.347053051,-37.22778,1930.077,-20.12609,1.899253,-1.506593,-15.70753,5.781563,11.34089,36.01733,890.5284
2.366872788,-76.58592,1606.53,-34.62684,-3.712766,0.06128875,-8.774396,5.781563,11.34089,36.01733,890.5284
2.386696339,691.7698,-436.6067,-40.62293,-2.837208,-2.235645,2.55,5.781563,11.34089,36.01733,890.5231
2.406520844,-19.97745,-57.80068,-4.768755,-3.026474,-0.9531525,-0.2158897,-3.331457,-12.04506,57.53448,890.5231
2.426344872,399.0124,-225.7007,-38.23673,-3.791669,-2.022955,-2.151794,-3.331457,-12.04506,57.53448,890.5231
2.446168423,-18.73194,297.2047,19.70508,-1.494287,1.567827,-0.06932413,6.502853,12.79154,7.837072,890.5231
2.465992451,-179.5274,-14.97145,6.060919,0.7664944,0.4462741,0.04023156,6.502853,12.79154,7.837072,890.5231
2.488294125,90.4371,-65.75384,-5.319416,1.102317,3.010782,3.460228,-3.813139,19.0985,0.2691636,890.5231
2.508118630,46.90649,-66.10732,3.185243,1.449997,1.127509,2.224972,-3.813139,19.0985,0.2691636,890.5231
2.527942181,-336.2127,-262.9922,31.20779,0.4625974,-1.458892,0.8177396,-3.813139,19.0985,0.2691636,890.5231
2.547766209,228.9379,216.3182,14.32084,-0.2240708,-0.8807188,-0.0883015,-6.798742,23.51249,0.2486572,890.5214
2.567585945,-269.3287,41.70217,11.81227,-2.561616,1.950776,-0.08229444,-6.798742,23.51249,0.2486572,890.5214
2.587409496,154.2073,73.9861,1.900366,1.651851,0.7676176,3.193843,-6.471544,-3.184005,1.530673,890.5214
2.607234001,-283.3407,-252.1523,22.21365,1.283153,0.2296783,-0.1366437,-6.471544,-3.184005,1.530673,890.5214
2.627057552,172.5163,17.43031,-8.133907,-1.253658,0.233044,-0.0345314,-6.471544,-3.184005,1.530673,890.5214
2.646881581,28.84658,201.9436,21.17351,-0.7619132,3.359214,1.18214,-6.334324,32.76135,7.295318,890.5214
2.666705132,-531.0728,-4.897449,30.59594,1.470318,0.1186382,4.611428,-6.334324,32.76135,7.295318,890.5231
2.686529160,-101.4339,112.0434,-13.70171,1.455262,-0.1618863,1.818298,-7.768343,33.95726,8.982986,890.5231
2.706353665,-31.3116,77.57975,-15.78198,-0.9848056,0.7758397,-0.7143487,-7.768343,33.95726,8.982986,890.5231
2.726177216,-496.5722,135.844,39.65126,0.7798107,-0.8443369,0.05973377,-7.768343,33.95726,8.982986,890.5231
2.746001244,-116.7537,494.5609,-31.50642,2.353081,1.582857,-3.145377,-8.61511,23.34951,13.92152,890.5231
2.768298626,54.94003,1930.077,-180.9192,8.9841,-0.7149174,-15.72652,-8.61511,23.34951,13.92152,890.5231
2.788122654,211.3762,1924.951,-34.50447,-7.186466,0.7763515,-13.84787,-14.86639,16.84565,39.31289,890.5196
2.807947159,-85.3045,147.5086,9.915548,-0.8097167,-0.2320124,1.379639,-14.86639,16.84565,39.31289,890.5196
2.827770710,353.3022,79.81842,-3.667432,0.4427345,-1.091044,-2.442946,-14.86639,16.84565,39.31289,890.5214
2.847594738,-195.0963,-151.9425,10.64976,0.6441393,-0.09136179,-0.0388206,36.48943,14.46922,-2.183464,890.5214
2.867418289,-27.82417,19.37441,-3.23914,0.1813113,-0.04730678,-0.47593,36.48943,14.46922,-2.183464,890.5231
2.887242317,87.38559,-20.03791,2.328658,0.2970192,-0.05222314,-1.212697,25.06474,20.70027,-12.21848,890.5231
2.907066822,-166.6364,-32.52731,9.731995,0.3600031,0.03763509,0.2639648,25.06474,20.70027,-12.21848,890.5231
2.926890373,-283.0916,-209.6765,17.19651,-0.856779,0.4234596,-0.1523483,25.06474,20.70027,-12.21848,890.5231
2.946714401,106.5042,10.94996,-2.627294,-0.3005568,0.5943485,-1.430829,23.55185,27.74548,-8.891047,890.5198
2.966534138,-28.38465,14.13122,-1.342417,-0.1884466,-0.1557081,-1.324559,23.55185,27.74548,-8.891047,890.5198
2.986357689,61.22986,-3.954852,2.634581,-0.1325465,0.5723268,-0.6803428,25.77385,29.15765,-9.831678,890.5231
3.006182194,62.4131,77.46193,-6.543108,-0.1924441,-0.594156,-1.408223,25.77385,29.15765,-9.831678,890.5231
3.026005745,10.16391,62.32147,1.839182,1.527933,0.2964298,-1.802737,25.77385,29.15765,-9.831678,890.5231
3.048307896,-9.95109,110.3939,-3.23914,0.3286425,-0.764895,-1.535799,25.47254,-2.834004,-19.89751,890.5231
3.068131447,139.2611,33.57227,-10.82603,0.5222852,-0.2641639,-0.9023694,25.47254,-2.834004,-19.89751,890.5231
3.087955475,-39.28287,-40.18591,4.470119,0.4133948,0.2943524,-0.668593,19.26623,22.67815,-6.599103,890.5231
3.107779503,-190.4256,19.37441,6.917503,-0.6497417,-0.4898878,-1.367451,19.26623,22.67815,-6.599103,890.5231
3.127769470,41.73761,18.07834,-3.177955,0.07705219,0.2036866,-0.8157603,19.26623,22.67815,-6.599103,890.5231
3.147593498,-3.848086,16.19315,4.164196,-0.2352793,0.3000235,0.3897692,17.48979,16.50912,-6.889254,890.525
3.167413712,188.7079,198.7623,-15.23132,0.5453326,0.005551837,-3.551609,17.48979,16.50912,-6.889254,890.525
3.187237263,99.5916,1930.077,-193.4009,10.30061,-0.2261855,-15.36959,7.277376,14.79604,23.10102,890.5231
3.207061291,226.011,1930.077,-67.42178,-9.88622,-1.00786,-15.68284,7.277376,14.79604,23.10102,890.5231
3.226884842,-48.68648,44.41214,28.7604,2.195855,-2.229633,4.44954,7.277376,14.79604,23.10102,890.5178
3.246708870,333.6854,188.6883,-47.72034,1.214197,3.647994,4.100032,1.8076,-14.97066,67.26023,890.5178
3.266533375,-131.5752,-98.21451,5.449073,0.9315252,-1.041946,2.168862,1.8076,-14.97066,67.26023,890.5178
3.286356926,313.259,94.01628,-63.20004,1.913931,6.028135,0.6656587,10.68312,9.500538,11.61159,890.5178
3.306180954,-57.46733,122.5887,-9.602338,2.67277,0.8319936,2.949637,10.68312,9.500538,11.61159,890.5161
3.328482628,-99.50333,-70.349,25.33407,-2.150485,-0.714354,-0.7605427,10.68312,9.500538,11.61159,890.5161
3.348306179,-29.19423,-35.8264,32.92096,-1.28904,0.4407067,-0.8892929,-1.96172,18.6845,-1.503001,890.5178
3.368126869,-193.1035,133.9588,-9.23523,-1.587478,-1.124012,-4.128656,-1.96172,18.6845,-1.503001,890.5178
3.387950420,-51.86253,1.052692,3.858273,1.133036,-1.095625,1.149856,-5.330858,23.49057,0.2201853,890.5178
3.407774448,-52.67212,107.7428,9.609625,0.5421969,1.168306,2.601054,-5.330858,23.49057,0.2201853,890.5178
3.427598000,-339.0151,-53.14661,21.47944,-0.7034583,-0.1884133,1.450733,-5.330858,23.49057,0.2201853,890.5145
3.447422028,415.4532,37.9907,-34.44329,1.178611,2.334317,-0.5359174,-11.35951,1.959601,-0.5822482,890.5145
3.467246533,-339.2019,-51.6738,7.101057,-0.1510828,-1.890891,-1.095237,-11.35951,1.959601,-0.5822482,890.5145
3.487070084,200.6648,97.55102,24.66104,-2.108729,-2.920687,-0.5445013,-6.660034,30.22296,7.783075,890.5145
3.506894112,-463.1302,61.08431,16.09519,0.6375774,-0.3026209,-0.002828314,-6.660034,30.22296,7.783075,890.5145
3.526717663,-423.0871,-45.9004,-8.990492,-0.2896976,0.7141661,2.699841,-6.660034,30.22296,7.783075,890.5162
3.546541691,-190.5502,45.64929,5.571442,-0.7146693,-0.7530481,-0.195909,-6.000723,33.53416,6.403294,890.5162
3.566361904,-192.9166,-104.4003,10.40502,-0.03390771,1.479657,1.806891,-6.000723,33.53416,6.403294,890.5162
3.586185932,-32.43256,196.1702,7.957641,0.6912885,-0.5738976,2.081647,-9.448061,26.67188,11.69929,890.5162
3.606009483,-170.1861,1920.12,-46.86376,7.019481,-2.073225,-12.81101,-9.448061,26.67188,11.69929,890.5162
3.628311157,211.6253,1930.077,-14.49711,-11.64316,-2.788811,-15.67826,-22.48181,21.42093,46.60231,890.5162
3.648135185,-318.2773,317.6473,10.77213,-4.238378,-0.605397,-3.991952,-22.48181,21.42093,46.60231,890.5128
3.667959690,25.4837,-200.4862,15.60572,0.04489524,1.07412,4.049375,-22.48181,21.42093,46.60231,890.5128
3.687783241,92.92812,-55.44419,-5.135862,-0.8237913,0.09557625,-1.749838,19.52,26.51131,3.910757,890.5128
3.707606793,-125.41,58.19761,3.613535,-0.1848268,0.1550535,-0.7677329,19.52,26.51131,3.910757,890.5128
3.727430821,-34.42538,-27.34303,3.674719,-0.3508433,-0.2040751,-1.328001,26.53289,19.58043,-12.66305,890.5145
3.747254372,12.34356,40.64175,3.368796,-0.08985739,-0.6388459,-2.742578,26.53289,19.58043,-12.66305,890.5145
3.767075062,225.8241,126.6537,-24.28664,-0.05863048,-0.497414,-2.92993,26.53289,19.58043,-12.66305,890.5162
3.786898613,-50.80385,23.79283,5.449073,0.7263269,-0.7713384,-0.04407879,22.07593,27.39783,-9.291581,890.5162
3.806722641,67.39514,123.8259,-13.15104,-0.1816048,-0.9530602,-1.681578,22.07593,27.39783,-9.291581,890.5162
3.826546192,-25.58225,66.73989,0.4319358,-0.1522593,0.09047359,-0.8080143,22.50183,28.51641,-6.767506,890.5162
3.846370220,-90.03745,-73.53026,1.227336,0.8036847,-0.7467472,-0.1702074,22.50183,28.51641,-6.767506,890.5162
3.866194725,39.24659,-56.917,4.34775,-2.064671,0.2589008,0.8115819,22.50183,28.51641,-6.767506,890.5162
3.886018276,-207.5514,-55.79766,5.754996,-1.341547,0.5971229,-0.3222357,39.16179,7.858405,-27.20683,890.518
3.908319950,85.20595,5.058728,-8.195092,-0.1755411,-0.119116,-2.137241,39.16179,7.858405,-27.20683,890.518
3.928143978,-25.2086,-18.5651,1.594443,-1.627026,0.5566126,-1.340599,18.53256,21.59119,-7.000966,890.518
3.947967529,-135.4986,112.8682,4.837227,0.3582674,-0.2946682,-2.182958,18.53256,21.59119,-7.000966,890.518
3.967788219,75.55324,55.13417,-2.688479,0.5621389,-0.1345068,-0.3656865,18.53256,21.59119,-7.000966,890.5198
3.987611771,53.19632,106.5646,-10.82603,-0.8149598,0.009507844,-1.258034,22.53496,19.31971,-9.155633,890.5198
4.007435799,-60.58111,103.3244,19.21561,0.08445536,-0.4557626,-1.891125,22.53496,19.31971,-9.155633,890.5198
4.027259350,132.8467,1930.077,-230.6623,13.64057,2.478035,-1.465024,9.180232,16.88826,13.25175,890.5198
4.047083378,26.72921,1930.077,-12.35565,-1.109161,-0.6849079,-15.70321,9.180232,16.88826,13.25175,890.518
4.066907883,-22.46848,1164.983,6.978688,-4.761271,-0.1691138,-3.262033,9.180232,16.88826,13.25175,890.518
4.086731434,929.9738,-460.2305,-38.90976,4.06835,0.130385,7.799005,6.890419,-16.53559,64.63585,890.5162
4.106555462,-76.21227,-125.4909,-12.23328,-0.7429204,-0.02511314,-1.818946,6.890419,-16.53559,64.63585,890.5162
4.126379013,247.496,-328.267,-9.296415,3.717252,3.711565,5.461403,15.22731,2.481586,13.82718,890.518
4.146202564,-262.3539,-25.04545,-94.22063,-0.9171323,4.329935,-2.564462,15.22731,2.481586,13.82718,890.518
4.166023254,-113.453,160.2337,-15.84317,-0.7684273,-0.4528695,-0.01821208,15.22731,2.481586,13.82718,890.5165
4.188324928,171.333,78.40453,73.36398,1.403841,-5.251614,3.623332,-0.8857269,20.85313,-1.563079,890.5165
4.208148956,-20.16428,18.90311,-19.39187,-0.07661674,0.1479768,-2.214167,-0.8857269,20.85313,-1.563079,890.5165
4.227972508,-302.7707,70.1568,17.62481,0.616712,-2.81465,1.407748,-5.330858,23.49057,0.2201853,890.5165
4.247796536,214.6768,-26.57717,-22.69584,-0.8942297,3.120008,1.487077,-5.330858,23.49057,0.2201853,890.5165
4.267620564,-50.49247,3.58592,1.043782,0.3356737,1.758919,2.7024,-5.330858,23.49057,0.2201853,890.5165
4.287444592,381.3885,101.3214,-36.27882,0.6882527,2.308826,3.530827,-11.47152,8.559385,-2.00588,890.5165
4.307268143,-202.6316,-34.00012,4.408935,-0.4889285,0.8193049,1.788981,-11.47152,8.559385,-2.00588,890.5165
4.327092171,77.91971,-70.29008,6.856318,0.1592069,-0.6760206,1.69119,-6.63096,27.6737,7.828254,890.5165
4.346915722,183.9127,87.00571,-79.71988,-2.362979,4.457545,-3.953234,-6.63096,27.6737,7.828254,890.5165
4.366736412,-549.2573,167.8334,0.8602279,-1.260406,1.146751,-0.121459,-6.63096,27.6737,7.828254,890.5165
4.386559963,-217.0796,-9.669344,-7.032585,-0.5595634,0.01252134,-0.8855851,-5.616449,32.01127,6.423069,890.5165
4.406383991,77.29695,-98.45016,3.062873,-0.5250462,1.401288,2.252919,-5.616449,32.01127,6.423069,890.5198
4.426207543,-315.9109,128.4211,10.8945,0.6022111,-1.140813,-0.5881586,-8.7614,27.73809,10.42152,890.5198
4.446031571,121.5126,1283.809,-89.50941,8.317917,-9.797391,-13.25806,-8.7614,27.73809,10.42152,890.5198
4.468333721,-76.33682,1930.077,-107.0082,-0.2389194,-2.369424,-15.70377,-24.68126,25.542,48.31479,890.5198
4.488157749,-21.97027,1428.674,-18.84121,-3.990834,0.01883374,-8.325041,-24.68126,25.542,48.31479,890.5162
4.507981300,-58.09009,71.74744,16.21756,-1.481621,0.1410263,-0.1268785,-24.68126,25.542,48.31479,890.5162
4.527805328,290.9021,132.8984,-10.70366,-1.216038,0.5194824,-1.530212,6.790312,26.04942,10.14601,890.5162
4.547628880,-106.665,-3.247905,4.164196,-0.04404595,0.6968009,-0.6355699,6.790312,26.04942,10.14601,890.5162
4.567449570,-95.51769,71.39396,-1.954263,-0.6187329,-0.1427775,-0.5051804,28.72668,19.178,-13.13476,890.5162
4.587273121,-5.155872,-51.02577,3.062873,-0.4547653,-0.157893,-1.133832,28.72668,19.178,-13.13476,890.5162
4.607097149,-34.86131,21.49525,5.81618,-0.1386106,-1.676146,-3.658239,28.72668,19.178,-13.13476,890.5162
4.626920700,-366.354,-208.7339,21.72417,0.9085142,-1.003764,0.2764111,22.80987,27.38688,-9.305817,890.5162
4.646744728,65.40232,19.96353,-2.504925,0.4629883,-0.2519336,-0.4688589,22.80987,27.38688,-9.305817,890.5162
4.666568756,-80.01108,-115.7704,8.141195,0.1347349,0.5710627,-0.09913321,21.82977,27.09063,-5.110027,890.518
4.686392784,105.8814,64.79578,-11.00958,-0.2085789,0.5039457,-0.9219763,21.82977,27.09063,-5.110027,890.518
4.706216335,120.5162,12.83515,-3.361509,-0.353974,0.4413822,-0.9790864,21.82977,27.09063,-5.110027,890.518
4.726040363,-164.3945,87.00571,8.08001,-1.164695,0.787606,-0.8106683,41.95072,14.39898,-29.93158,890.518
4.748342037,106.006,119.8199,-14.74184,-0.5553572,0.08180049,-0.9531358,41.95072,14.39898,-29.93158,890.5198
4.768162728,56.43464,48.47708,0.06482819,0.1876363,0.2125802,-0.8002156,17.80693,20.87379,-6.973822,890.5198
4.787986279,-106.665,0.5813935,3.185243,0.561775,0.442485,-0.9041043,17.80693,20.87379,-6.973822,890.5198
4.807809830,-39.09605,-11.25998,4.837227,-0.194828,-0.2210975,-0.8073457,17.80693,20.87379,-6.973822,890.5198
4.827633858,59.17477,32.21729,-0.1799102,1.160007,-1.406487,1.10535,23.20354,20.74395,-10.93753,890.5198
4.847457409,16.88967,51.18705,2.634581,1.29341,0.1471506,-2.57409,23.20354,20.74395,-10.93753,890.5198
4.867281914,-88.29373,829.2416,-12.47801,6.31693,-3.649391,-7.240154,10.53574,18.28079,9.775984,890.5215
4.887105942,-1.170237,1930.077,-139.742,7.397693,0.8422837,-15.71948,10.53574,18.28079,9.775984,890.5215
4.906929493,112.4826,1916.232,-34.81039,-4.890964,1.265474,-11.49584,10.53574,18.28079,9.775984,890.518
4.926753521,327.0842,-150.7643,-14.86421,-4.071275,-3.780248,-0.2021125,8.682373,-16.44236,73.9997,890.518
4.946577072,129.6084,86.4166,-25.69389,-1.852865,0.9591498,-2.928606,8.682373,-16.44236,73.9997,890.518
4.966397762,591.4439,67.7414,-52.12563,-3.483073,0.7888199,-1.533195,18.6839,-1.55386,15.51257,890.518
4.986221313,393.0963,338.2077,-1.831894,-1.498164,1.447566,0.4972229,18.6839,-1.55386,15.51257,890.5198
5.006045341,-258.8042,157.5826,-15.59843,-2.335958,0.1831589,-2.10648,18.6839,-1.55386,15.51257,890.5198
5.028347015,378.5238,-99.68732,8.997779,1.245986,2.19143,5.172575,-0.1559372,21.20636,-1.583769,890.5215
5.048170567,-101.247,-97.97886,16.4623,1.305849,1.996743,2.126403,-0.1559372,21.20636,-1.583769,890.5215
5.067995071,-191.9202,8.181078,-5.808893,-1.028861,0.03301475,-0.1944557,-3.844223,22.74491,0.5778747,890.5215
5.087819099,222.4613,-70.76138,-32.7913,-2.194069,1.57881,-3.489234,-3.844223,22.74491,0.5778747,890.5215
5.107642651,-241.9275,345.3361,8.814225,0.5654861,-0.4156554,-0.971382,-3.844223,22.74491,0.5778747,890.5233
5.127466679,329.8866,-42.01219,-0.2410948,3.517975,1.050673,5.341011,-10.78326,12.5544,-2.091112,890.5233
5.147290230,-105.8554,-212.3865,18.11428,-0.2107081,0.9155559,-0.2301253,-10.78326,12.5544,-2.091112,890.5233
5.167109966,-86.42546,25.50129,-2.382556,-0.9864718,0.2757328,-1.277349,-6.606043,25.48862,7.866979,890.5233
5.186934471,169.2779,127.3606,51.64344,0.6722803,0.3359641,3.554427,-6.606043,25.48862,7.866979,890.5251
5.206758499,-609.6023,132.8395,25.45643,1.277065,0.56323,-0.6041042,-6.606043,25.48862,7.866979,890.5251
5.226582050,-223.8053,-73.05896,-4.952309,0.5917927,-0.4767895,1.647992,-6.735844,31.65354,5.642164,890.5251
5.246405602,263.7499,-41.1285,-13.21223,-0.4044374,0.814969,1.682957,-6.735844,31.65354,5.642164,890.5251
5.266229630,-420.1601,139.6144,24.04919,-0.9117302,-0.7794319,-1.691435,-8.052103,28.81429,9.952459,890.5218
5.286054134,32.39628,432.5852,-34.13736,1.605671,1.699685,0.3731344,-8.052103,28.81429,9.952459,890.5218
5.308355808,54.44183,1929.959,-205.2095,12.39609,-0.5536207,-15.73445,-8.052103,28.81429,9.952459,890.52
5.328179360,249.6134,1929.959,-31.38406,-7.749534,0.4747261,-15.33097,-25.57335,24.69011,42.37097,890.52
5.348003388,-193.8508,110.8063,19.6439,-0.6771869,-0.6157602,1.145278,-25.57335,24.69011,42.37097,890.5165
5.367823124,405.1154,107.0359,-4.340463,0.7089911,-1.104844,-1.688379,-2.728607,19.94643,10.87852,890.5165
5.387647629,-99.44105,-154.4757,10.52739,0.2873214,0.7321119,-0.558769,-2.728607,19.94643,10.87852,890.5165
5.407471180,-117.8746,62.26256,4.225381,0.1802464,-0.2776185,-0.7339709,-2.728607,19.94643,10.87852,890.5165
5.427295208,61.85262,-30.40647,0.3707512,-0.06438434,0.03363118,-1.564815,31.65414,19.86253,-13.20461,890.5182
5.447118759,-5.716352,26.26715,-7.338508,-0.8209921,1.108958,-0.1310827,31.65414,19.86253,-13.20461,890.5182
5.466942787,-201.6352,-15.50166,8.691856,-2.259242,2.187796,0.1080066,22.45536,26.29982,-9.279337,890.52
5.486767292,71.25623,88.41961,-1.893079,-0.7630597,0.2744077,-1.503412,22.45536,26.29982,-9.279337,890.52
5.506590843,22.99268,22.49676,2.145104,-0.7667748,0.7618503,-1.143916,22.45536,26.29982,-9.279337,890.5218
5.526414871,71.19395,48.35926,1.716812,-0.5146996,-0.1710767,-1.730361,21.8583,26.73721,-4.232652,890.5218
5.546238423,96.41554,53.13115,-12.41683,-0.01869237,-0.01303811,-1.12722,21.8583,26.73721,-4.232652,890.5236
5.566058159,-67.18232,60.78975,10.28266,1.344592,-0.03718209,-1.971736,40.04608,17.32368,-31.25401,890.5236
5.588360787,-20.41338,103.619,-2.382556,0.8454541,-0.8101426,-1.502501,40.04608,17.32368,-31.25401,890.5236
5.608184338,119.7689,-13.02734,-12.90631,0.1385436,-0.2083855,-0.259335,16.72236,20.53143,-6.510553,890.5236
5.628008366,-13.93672,-27.40194,6.244473,0.4733266,-0.05467963,-1.232259,16.72236,20.53143,-6.510553,890.5253
5.647831917,-203.8149,31.98164,9.426071,-1.068868,0.4613349,-1.150313,16.72236,20.53143,-6.510553,890.5253
5.667655945,44.91367,1.877464,-3.912171,-0.3687853,0.06803525,-1.190124,23.16845,21.8265,-11.7656,890.527
5.687480450,60.60711,-4.602887,-0.6693869,-0.5788839,0.4880548,-0.4178241,23.16845,21.8265,-11.7656,890.527
5.707304001,133.7186,264.6263,-11.19314,0.6330217,0.02480579,-2.414022,11.53231,20.04835,6.736343,890.527
5.727128029,108.6216,1930.077,-210.2266,10.63479,-0.7642933,-15.43534,11.53231,20.04835,6.736343,890.527
5.746951580,182.7917,1930.077,-71.52114,-7.805177,-1.234718,-15.68758,11.53231,20.04835,6.736343,890.527
5.766771317,-94.27218,157.995,29.73936,3.084829,-1.424659,3.76103,5.282,-10.12502,75.19832,890.5236
5.786595822,317.1824,237.5266,-53.89999,1.731099,3.443271,3.204369,5.282,-10.12502,75.19832,890.5236
5.806419373,358.3465,80.58427,-2.749663,1.296088,0.1347312,2.426265,21.71065,-5.278662,17.26309,890.5202
5.826243401,690.0884,-18.5651,-34.74921,0.1015379,0.2465464,0.7721025,21.71065,-5.278662,17.26309,890.5202
5.846066952,-159.8483,155.344,-36.82948,1.253521,-1.181502,0.8857461,21.71065,-5.278662,17.26309,890.5184
5.868369102,14.08727,2.348762,13.46425,-1.535159,-2.293761,-0.1451962,0.2356815,20.11372,-1.136064,890.5184
5.888192654,180.6121,-18.15271,-4.218093,-1.335918,3.556545,0.7821153,0.2356815,20.11372,-1.136064,890.5202
5.908017158,-228.4137,93.6628,-0.9753099,-1.985244,-0.19767,-1.065637,-4.949287,23.12553,0.5927739,890.5202
5.927840710,147.2947,38.63873,-57.38751,1.601812,1.878315,-0.8868151,-4.949287,23.12553,0.5927739,890.5202
5.947664738,-186.2532,26.0315,-2.076633,-1.059624,0.4388236,-1.776689,-4.949287,23.12553,0.5927739,890.5202
5.967484474,-43.57988,-161.6041,12.97478,-0.3324575,-0.0900893,0.3915447,-9.730867,15.87166,-2.54488,890.5202
5.987308025,298.3129,-29.69952,-4.279278,1.772949,2.555451,1.899613,-9.730867,15.87166,-2.54488,890.5202
6.007132530,-89.97517,-21.56963,0.4319358,-2.333951,-0.9030061,-3.628014,-6.951284,22.51459,7.491345,890.522
6.026956558,513.5995,-37.59377,28.33211,-1.106671,-0.6307404,1.704637,-6.951284,22.51459,7.491345,890.522
6.046780109,-181.5202,192.1641,12.05701,0.04742081,0.8614773,0.3319661,-6.951284,22.51459,7.491345,890.522
6.066604137,-568.9987,-39.53787,13.70899,-0.6514868,-0.7094564,0.2971681,-6.366732,32.38103,5.995389,890.522
6.086427689,-43.33078,-25.57566,-5.441785,0.1971999,-0.5494339,0.2965972,-6.366732,32.38103,5.995389,890.522
6.106252193,-284.3994,-59.74479,15.91164,1.243331,1.067551,1.712597,-8.439569,29.54275,9.511208,890.522
6.126205444,27.16514,205.2427,6.733949,0.369386,-0.8483,1.292336,-8.439569,29.54275,9.511208,890.522
6.148507118,127.3665,1930.077,-182.6936,-0.04958529,-1.195553,-15.70551,-8.439569,29.54275,9.511208,890.522
6.168327332,243.0122,1930.077,-50.2901,-10.45376,-1.650421,-15.68134,-22.63316,23.18419,41.90438,890.5202
6.188151360,-330.857,67.2701,33.47162,-1.274075,-1.609548,-0.7556009,-22.63316,23.18419,41.90438,890.5202
6.207974911,27.41424,-255.8638,14.01492,1.889508,-1.22996,-0.4924592,-5.675699,15.62102,11.0141,890.5168
6.227798939,6.676482,-84.78251,-2.933217,-0.9154803,0.3784264,-1.707089,-5.675699,15.62102,11.0141,890.5168
6.247622490,-78.45419,38.69764,12.05701,-0.7267188,-0.3480388,-0.503913,-5.675699,15.62102,11.0141,890.5187
6.267446518,41.30169,-23.69047,3.185243,-0.4027022,-0.2969197,-2.160608,34.67545,19.82854,-12.39182,890.5187
6.287271023,29.46933,51.48161,-1.158864,-0.4652531,-0.5631166,-2.469735,34.67545,19.82854,-12.39182,890.5187
6.307094574,203.2181,104.6794,-20.12609,-0.07437667,0.4132795,-2.368446,23.18127,25.9193,-9.72258,890.5187
6.326918602,41.86217,88.65526,-2.015448,0.2448578,-0.7057955,-0.5501087,23.18127,25.9193,-9.72258,890.5187
6.346742153,29.59388,123.767,-11.62143,-0.6574674,-0.6884373,-1.938667,23.18127,25.9193,-9.72258,890.5187
6.366561890,96.97603,91.89544,-8.256277,-0.683131,0.2400412,-1.473897,22.20893,27.09053,-4.681684,890.5187
6.386386395,-110.5884,-52.43966,5.81618,0.9465454,-0.8250796,-0.6661447,22.20893,27.09053,-4.681684,890.5187
6.406210423,-38.78467,38.57982,2.75695,-0.0002017448,-0.3875673,-0.3868201,37.04226,20.26557,-32.49287,890.5204
6.428512097,-114.4495,-129.1435,8.691856,1.510338,0.1094064,1.332518,37.04226,20.26557,-32.49287,890.5204
6.448335648,107.6874,-42.48349,-13.27341,-0.4178568,-0.6029008,-2.271581,15.26693,19.46081,-6.462719,890.5204
6.468159676,7.361513,-18.91857,-0.7305716,-1.117201,-0.2191186,-1.315691,15.26693,19.46081,-6.462719,890.5204
6.487984181,-180.7729,139.1431,0.3707512,0.2478724,0.2840938,-0.8621499,15.26693,19.46081,-6.462719,890.5187
6.507807732,180.4253,91.36523,-18.35174,-0.6982076,0.02518022,-1.083999,22.76049,23.27793,-12.65522,890.5187
6.527631760,40.42983,69.09638,5.326704,-0.5585421,-0.3945776,-1.402647,22.76049,23.27793,-12.65522,890.5187
6.547455311,-39.15832,116.4619,20.92877,-0.5594833,-1.634826,-2.501288,11.43213,21.46818,3.724509,890.5187
6.567275047,-18.91877,1918.706,-60.44674,3.395753,-3.156579,-15.71289,11.43213,21.46818,3.724509,890.5187
6.587099552,66.95921,1930.077,48.70658,-2.33296,-0.9874917,-15.7003,11.43213,21.46818,3.724509,890.5187
6.606923103,-185.1945,435.3541,11.26161,-5.606346,-1.771278,-5.910155,2.420952,-6.555553,66.22556,890.5151
6.626747131,818.9988,-257.9257,-28.50838,5.398196,3.157864,10.54184,2.420952,-6.555553,66.22556,890.5151
6.646570683,-12.56666,-222.166,17.62481,0.2335049,0.709649,1.412389,19.22985,-6.665512,19.88928,890.5151
6.666394711,248.8661,49.30185,-22.75703,1.468323,1.00486,1.930461,19.22985,-6.665512,19.88928,890.5151
6.686218262,110.4275,-54.32486,-63.44478,-1.886005,4.567816,-0.4514363,19.22985,-6.665512,19.88928,890.5117
6.706042767,-209.7933,-24.22068,15.29979,0.782119,-1.079509,2.414399,0.6068058,19.74406,-1.136728,890.5117
6.728344441,-8.643303,-75.00307,25.2117,0.5016621,0.9403605,1.533814,0.6068058,19.74406,-1.136728,890.5135
6.748168469,-60.26973,89.48003,-16.88331,1.016507,0.906726,0.2147854,-4.932947,22.76673,1.034689,890.5135
6.767988205,-42.83258,-113.1782,6.61158,1.134851,-0.9783717,4.945818,-4.932947,22.76673,1.034689,890.5135
6.787811756,-27.07686,-30.46538,-2.994402,0.00903271,1.543318,1.132525,-4.932947,22.76673,1.034689,890.5135
6.807636261,-265.5299,-212.0919,39.22297,1.245225,2.022186,4.649221,-8.675371,18.76328,-3.053328,890.5135
6.827460289,513.8486,98.96491,-45.15059,-2.228126,1.305884,-0.4932672,-8.675371,18.76328,-3.053328,890.5135
6.847283840,-516.6872,271.4601,4.164196,1.007654,1.40798,0.8367106,-6.546936,19.2315,7.542314,890.5135
6.867107868,475.8604,-57.4472,-44.23282,2.093196,3.78251,5.991412,-6.546936,19.2315,7.542314,890.5135
6.886931419,311.2662,58.84565,-7.7668,0.4297852,3.335093,2.07057,-6.546936,19.2315,7.542314,890.5135
6.906755924,-677.0468,105.0329,17.62481,-1.122546,-0.2682263,-0.5758101,-7.106968,32.02319,5.642828,890.5153
6.926579952,-169.1897,-38.30071,-7.644431,-0.9317678,-0.1409525,0.3642119,-7.106968,32.02319,5.642828,890.5153
6.946403503,-80.69611,-185.228,6.61158,0.8174472,1.336701,1.043085,-9.185968,30.64624,9.506081,890.5153
6.966223240,-177.846,196.8182,14.01492,-0.0004427882,-1.169176,-0.7677708,-9.185968,30.64624,9.506081,890.5153
6.986047268,537.6378,1930.077,-288.4817,12.9836,6.520232,-2.783977,-9.185968,30.64624,9.506081,890.5153
7.008348942,15.95554,1930.077,41.42561,-0.6786907,-1.15958,-15.70407,-20.01485,20.9437,40.58572,890.5153
7.028173447,-139.0483,988.3047,-11.68261,-5.448996,1.068148,-6.024364,-20.01485,20.9437,40.58572,890.5101
7.047996998,-98.75602,-150.941,12.79122,-1.233348,-1.036647,-0.2626271,7.767395,17.30049,15.38886,890.5101
7.067821026,163.7354,-9.610432,-3.850986,-1.078445,0.6858915,-2.22925,7.767395,17.30049,15.38886,890.5101
7.087644577,-60.51883,121.9996,4.470119,-0.3663753,0.2018469,-0.8640589,7.767395,17.30049,15.38886,890.5101
7.107468605,-69.17513,33.57227,-5.074678,-0.4091022,-0.6534078,-1.367959,35.0463,20.5568,-11.97639,890.5101
7.127292633,10.66212,-4.779624,-1.64834,0.08995274,0.1420652,-1.050418,35.0463,20.5568,-11.97639,890.5101
7.147116661,89.31613,44.17649,-4.401647,0.06592938,-1.617341,-3.568702,23.90302,25.90296,-10.17228,890.512
7.166936398,-262.4162,-109.997,19.21561,0.9770584,-1.191317,0.03112645,23.90302,25.90296,-10.17228,890.512
7.186759949,62.03944,59.78824,-11.92735,-0.01241236,-0.5792746,-1.158195,23.90302,25.90296,-10.17228,890.5154
7.206583977,-25.58225,-16.79773,-0.1799102,0.5838885,-0.07183195,-0.1766016,23.31815,26.34574,-4.69013,890.5154
7.226407528,-121.9848,-15.32492,2.328658,-0.498376,0.5450241,0.2121657,23.31815,26.34574,-4.69013,890.5154
7.246232033,85.26822,-62.86714,3.55235,-0.4898166,-0.1688897,-0.9833825,35.92862,22.47246,-32.07478,890.5154
7.266056061,-136.1214,-22.51222,11.26161,-0.2183396,0.6545417,-0.653352,35.92862,22.47246,-32.07478,890.5154
7.288357735,112.7317,57.54957,-13.02868,-0.580998,-0.2718155,-1.342294,35.92862,22.47246,-32.07478,890.5154
7.308181286,8.046544,83.29424,1.166151,-0.6004721,0.2882813,-1.985535,12.99618,18.02712,-7.26393,890.5172
7.328005314,-151.4411,43.94084,-0.7305716,0.3515041,0.4209987,-2.188419,12.99618,18.02712,-7.26393,890.5172
7.347829819,69.51251,37.40157,-9.847076,-0.0103347,-0.3211031,-0.7675176,21.664,21.83227,-13.04351,890.5172
7.367649555,96.60237,149.276,-2.872032,0.03118986,-0.4176635,0.0579861,21.664,21.83227,-13.04351,890.5172
7.387473106,-25.4577,52.60094,3.55235,0.5323921,0.733218,0.8820623,21.664,21.83227,-13.04351,890.519
7.407297134,373.604,1618.548,-153.6921,11.82924,-5.426766,-9.221479,12.13955,20.71349,2.479008,890.519
7.427120686,-47.93917,1930.077,-10.70366,0.7850258,-1.25209,-15.70407,12.13955,20.71349,2.479008,890.5139
7.446944714,-40.52839,1676.518,-44.90585,-4.096684,0.5824237,-9.62653,5.074512,-3.795864,57.22115,890.5139
7.466769219,703.2285,-371.5086,-47.29205,-1.555633,-2.004564,3.795864,5.074512,-3.795864,57.22115,890.5104
7.486592770,13.90044,-14.02885,-20.24846,-0.6616319,0.8757457,-0.4407323,5.074512,-3.795864,57.22115,890.5104
7.506416798,429.652,-212.74,-39.64397,1.779712,2.123626,4.736547,18.70194,-13.21283,24.68642,890.5104
7.526240349,122.7581,284.0084,150.4566,3.553331,-0.167553,4.935205,18.70194,-13.21283,24.68642,890.5104
7.546064377,-334.2821,-74.00156,-13.21223,0.07165768,0.6020156,-0.2982063,1.031105,17.93382,0.1948071,890.5104
7.568362713,187.9606,-56.56352,34.94005,-0.03415243,-1.123763,1.461911,1.031105,17.93382,0.1948071,890.5104
7.588186264,14.2741,-28.46236,-6.787847,0.9875401,1.204393,0.3368768,-5.65443,21.68515,1.068287,890.5104
7.608010292,-498.9387,-76.29913,22.51957,-0.1786455,-1.748813,0.5061252,-5.65443,21.68515,1.068287,890.5104
7.627833843,115.6587,177.3772,-17.06686,-0.8386812,0.4340978,-0.4497713,-5.65443,21.68515,1.068287,890.5121
7.647657871,-299.2833,-57.32938,41.24206,-1.612007,0.650108,1.151377,-8.320856,19.85034,-3.079808,890.5121
7.667481423,102.7677,-1.362712,0.8602279,3.051455,1.27229,4.942646,-8.320856,19.85034,-3.079808,890.5088
7.687305927,-34.86131,-105.8731,2.512212,1.082506,1.422888,4.880588,-6.513439,15.22014,7.177849,890.5088
7.707129479,122.5713,-66.10732,-21.41097,1.576651,0.838695,1.996822,-6.513439,15.22014,7.177849,890.5088
7.726953507,215.6732,138.3772,-39.46042,-0.8367701,2.572008,0.02942527,-6.513439,15.22014,7.177849,890.5088
7.746777058,-373.9517,150.3364,5.387888,1.373779,1.791614,2.325516,-6.725668,32.75607,6.431514,890.5088
7.766596794,-263.4126,54.83961,8.814225,-1.572107,-1.376821,-1.053316,-6.725668,32.75607,6.431514,890.5088
7.786421299,264.6218,-134.799,-4.891124,2.096878,-0.2550098,4.530118,-9.202581,32.10295,9.480265,890.507
7.806245327,-469.1087,216.6717,30.84068,0.6294585,-0.501284,-1.236799,-9.202581,32.10295,9.480265,890.507
7.826068878,-65.06495,606.4353,-36.58475,2.599174,2.282368,-3.692062,-9.202581,32.10295,9.480265,890.5088
7.848370552,16.57829,1930.077,-144.2696,9.313704,0.04545364,-15.72607,-17.83123,19.43874,39.32465,890.5088
7.868194580,142.4372,1849.956,-46.61902,-6.253505,0.8022376,-12.9646,-17.83123,19.43874,39.32465,890.5034
7.888018131,-125.2854,134.6658,9.487256,-0.9193881,0.03679243,0.8621556,-7.737761,27.48901,20.61596,890.5034
7.907842636,389.0483,155.1672,-12.66157,-0.3930604,0.007380823,-1.780497,-7.737761,27.48901,20.61596,890.5034
7.927666664,-41.46252,-52.96987,5.632627,0.605242,0.4336979,-0.1858976,-7.737761,27.48901,20.61596,890.5034
7.947490215,-92.83984,51.89399,0.6766742,0.1628936,-0.3336622,-0.5313525,34.34143,18.01851,-11.91697,890.5053
7.967309952,6.053727,-5.663308,1.839182,-0.4540046,0.4774403,-0.9008102,34.34143,18.01851,-11.91697,890.5053
7.987133980,-73.8458,3.58592,11.6899,-0.07039543,-0.04061316,-1.178331,24.70643,25.16273,-10.17479,890.5053
8.006958485,-284.8354,-124.3716,14.25965,-1.654249,0.755936,-0.4886854,24.70643,25.16273,-10.17479,890.5053
8.026782036,80.34846,41.40761,-1.403602,0.04547311,0.6235406,-1.668198,24.70643,25.16273,-10.17479,890.5053
8.046606064,-9.764263,-39.6557,5.449073,-0.3374881,0.6538987,-0.9945106,24.02329,27.78612,-5.165643,890.507
8.066429615,58.17836,18.90311,-0.1187256,0.4924336,-0.1021514,-1.098206,24.02329,27.78612,-5.165643,890.507
8.086253643,146.236,47.23993,-10.33655,0.1354739,0.1009333,-1.128088,33.40172,24.05436,-29.93675,890.507
8.106077194,-65.00267,59.37585,2.022735,0.7913395,0.4273965,-0.8988838,33.40172,24.05436,-29.93675,890.507
8.128379822,37.6897,123.9437,-7.154954,-0.04695059,-0.8047163,-1.813143,33.40172,24.05436,-29.93675,890.507
8.148203373,77.1724,46.88645,-2.810848,0.378762,0.3509575,-0.07185802,9.356508,14.37404,-7.562596,890.507
8.168023109,-30.43974,-53.38226,-2.872032,0.6626456,0.6797174,-0.1391731,9.356508,14.37404,-7.562596,890.507
8.187847137,-76.8973,20.02245,-2.810848,-0.7177881,-0.2281485,-1.919986,20.93394,22.57697,-12.60673,890.507
8.207670689,-24.14991,42.05564,6.61158,-0.4346339,-0.01547702,-0.4998965,20.93394,22.57697,-12.60673,890.5088
8.227494717,62.4131,18.31399,-4.03454,0.5366437,0.08296776,-0.8086458,20.93394,22.57697,-12.60673,890.5088
8.247319222,70.88257,385.3375,-31.75116,1.403089,1.16746,-4.696993,12.07446,21.05076,0.2952499,890.5071
8.267142773,87.44787,1929.9,-223.3813,14.22149,0.1756176,-15.73888,12.07446,21.05076,0.2952499,890.5071
8.286966324,170.0252,1930.077,-61.7928,-5.27699,-0.9095035,-15.69352,2.219072,-0.361454,61.44911,890.5037
8.306790352,115.5341,100.5555,2.634581,-1.966883,-2.062947,2.176815,2.219072,-0.361454,61.44911,890.5037
8.326613903,256.526,150.8666,-23.55243,-0.7653599,1.021121,-1.27329,2.219072,-0.361454,61.44911,890.5018
8.346438408,328.1429,70.27463,-28.56956,1.610004,-2.113041,1.810372,14.02361,-9.717831,31.56393,890.5018
8.366258144,206.2696,159.6446,11.26161,0.02193425,0.6373398,1.376026,14.02361,-9.717831,31.56393,890.5001
8.386082172,-236.7586,245.7154,-43.31505,-3.6328,0.4297022,-2.955465,2.549881,18.6664,2.268523,890.5001
8.408383846,146.9833,-63.69191,20.98996,-1.017273,0.3905488,2.284042,2.549881,18.6664,2.268523,890.5034
8.428207874,111.9844,-67.4623,-4.891124,-2.09601,2.650614,-1.041793,-5.638088,21.32635,1.510202,890.5034
8.448031426,-294.1144,118.2292,-3.667432,-0.9681074,-0.957177,0.1935785,-5.638088,21.32635,1.510202,890.5018
8.467855930,251.108,115.048,-50.53483,0.4430475,2.100895,1.066712,-5.638088,21.32635,1.510202,890.5018
8.487679482,-169.4388,166.0071,-6.726662,0.7886543,0.3718865,-0.1254867,-8.33359,22.04079,-2.683072,890.5037
8.507503510,-99.37878,-27.04847,12.66885,0.8030483,-3.481663,1.802581,-8.33359,22.04079,-2.683072,890.5037
8.527327061,245.1295,-225.4061,11.6899,0.144766,2.32309,0.4160729,-6.130487,9.670525,5.588984,890.5037
8.547151089,-289.7551,-0.4790275,0.003643602,-2.01782,-1.848638,-1.463498,-6.130487,9.670525,5.588984,890.5037
8.566970825,60.1089,16.36988,-16.14909,0.1334737,1.084916,-1.076654,-6.130487,9.670525,5.588984,890.5054
8.586795330,-309.8701,130.3652,21.96891,-0.07925477,2.737732,1.150097,-6.338476,33.12553,7.288865,890.5054
8.606618881,-406.2727,-174.3881,4.531304,-0.6325891,-2.112202,-0.6429646,-6.338476,33.12553,7.288865,890.5071
8.626442909,-169.9993,-76.35805,10.34384,0.3812663,0.570362,1.434596,-9.178476,33.21164,10.76728,890.5071
8.646266461,-282.2821,-45.25236,23.55971,0.8492594,0.6911485,0.1457988,-9.178476,33.21164,10.76728,890.5071
8.666090489,37.75198,233.6384,14.99387,-0.1988573,-1.322349,-0.3262286,-9.178476,33.21164,10.76728,890.5071
8.688392639,125.9342,1930.077,-188.2614,3.57072,-0.9928703,-15.57602,-17.28439,17.88113,32.05782,890.5071
8.708216667,228.3774,1930.077,-64.97439,-8.835529,-1.603691,-15.68509,-17.28439,17.88113,32.05782,890.5071
8.728040219,-282.5312,25.32455,24.11037,0.02228482,-1.266897,1.395739,-16.98573,21.87163,31.17099,890.5037
8.747864247,155.0168,-194.3594,6.366842,2.211966,-1.208795,-1.028108,-16.98573,21.87163,31.17099,890.5037
8.767683983,83.89816,-32.35057,-4.340463,-0.5466005,0.3486035,-2.249534,-16.98573,21.87163,31.17099,890.5054
8.787507534,-99.12968,85.88638,-4.03454,-0.3452657,0.0556995,-0.4364341,34.05566,13.97268,-10.59361,890.5054
8.807332039,28.47292,25.67803,4.714858,-0.2484355,0.04732485,-2.192192,34.05566,13.97268,-10.59361,890.5054
8.827156067,82.46582,36.45898,-1.954263,-0.1031352,-0.6591184,-1.499396,24.34777,24.43985,-10.15476,890.5054
8.846979618,189.7666,104.6794,-22.57347,-0.39182,0.759312,-2.012014,24.34777,24.43985,-10.15476,890.5071
8.866803169,100.2766,124.1794,-5.931262,-0.2483203,-0.04661431,-0.8063155,24.34777,24.43985,-10.15476,890.5071
8.886627197,51.14122,132.7216,-11.43788,-0.3180856,-0.6241934,-2.580676,24.42249,27.40094,-6.349458,890.5059
8.906450748,-70.85658,63.73536,0.248382,-0.6187115,0.1122454,-0.6230571,24.42249,27.40094,-6.349458,890.5059
8.926275253,92.55446,-63.39735,-4.462832,0.9663151,-0.493298,-0.3923741,31.26489,25.6079,-24.81756,890.5076
8.946099281,-116.0686,0.8759549,2.267474,-0.2309725,-0.144016,-1.268436,31.26489,25.6079,-24.81756,890.5076
8.968397140,-162.7753,-116.006,19.94982,0.5128505,-0.1367299,0.7707857,31.26489,25.6079,-24.81756,890.5076
8.988220692,60.1089,4.940903,-10.33655,-0.2772736,-0.4099173,-2.252329,4.935783,7.505922,-8.59754,890.5076
9.008044720,71.75443,-38.59528,-6.910216,-0.9295287,-0.2949862,-1.497115,4.935783,7.505922,-8.59754,890.5095
9.027868271,-107.2878,97.31537,3.368796,0.2910385,-0.2216504,-1.504745,20.59764,22.962,-11.36189,890.5095
9.047692776,-50.6793,16.19315,-0.1799102,0.496288,-0.578576,-2.003139,20.59764,22.962,-11.36189,890.5112
9.067516327,91.62033,-41.01068,-1.097679,-1.035813,0.2473002,-0.6661891,20.59764,22.962,-11.36189,890.5112
9.087340355,-47.00504,131.7201,20.50048,-0.3065165,-1.101992,-2.541775,11.67709,19.57877,-1.35145,890.5129
9.107163906,-6.961863,1922.006,-65.40268,5.989103,-1.695029,-15.44013,11.67709,19.57877,-1.35145,890.5129
9.126987934,39.30887,1930.077,52.92832,-1.358607,-0.3428484,-15.70274,1.814444,4.584101,48.97923,890.5112
9.146811485,-247.2209,634.3597,-12.04972,-7.375889,0.05261787,-6.083304,1.814444,4.584101,48.97923,890.5112
9.166632175,864.7713,-189.0573,-38.54265,4.491528,3.627542,9.546312,1.814444,4.584101,48.97923,890.5112
9.186455727,107.376,-197.3639,0.6154895,-0.2229593,-0.6980812,1.395659,4.035799,-14.96083,42.06453,890.5112
9.206279755,244.4445,-58.68436,-11.19314,-0.3108073,-1.959484,1.16398,4.035799,-14.96083,42.06453,890.5112
9.226103306,128.0515,388.1653,-123.7116,-4.616842,6.254825,-1.299447,2.666407,16.88778,5.722271,890.5095
9.248404980,-164.8927,37.81396,7.529349,-0.6019204,0.4929138,-0.2065908,2.666407,16.88778,5.722271,890.5095
9.268229485,229.9343,230.8695,18.17547,0.3945022,-1.896216,2.932235,2.666407,16.88778,5.722271,890.5095
9.288053513,-44.51402,125.77,-13.27341,0.3945996,0.1726197,-0.1388841,-5.266691,19.85877,1.09344,890.5095
9.307877064,-244.6676,49.94989,23.07024,1.790125,-3.737424,3.573151,-5.266691,19.85877,1.09344,890.5112
9.327701092,90.74847,0.5224813,-6.604293,-0.1103641,3.480596,1.801693,-8.674044,22.79,-1.444688,890.5112
9.347524643,-233.9562,-6.311343,9.976733,-0.1048382,-1.398575,0.3099944,-8.674044,22.79,-1.444688,890.5112
9.367344380,94.54728,-44.4865,20.80641,-2.034857,-0.3496468,-2.002147,-8.674044,22.79,-1.444688,890.5112
9.387168884,-198.3346,90.01025,-17.37278,-2.237738,1.078087,-3.028314,-6.07472,0.4838228,4.00957,890.5112
9.406992912,84.33409,-67.87468,4.103012,-1.033955,1.419365,0.8351984,-6.07472,0.4838228,4.00957,890.5112
9.426816464,410.0352,228.9254,-60.07963,-1.535541,4.567513,1.81616,-6.710291,33.55589,7.288453,890.5112
9.446640492,-616.2658,23.55718,12.85241,-0.792406,-0.2537534,-1.348994,-6.710291,33.55589,7.288453,890.5112
9.466464043,-271.1347,31.15687,-1.158864,0.7022266,-1.057575,1.014842,-6.710291,33.55589,7.288453,890.5096
9.486287594,156.0755,-153.0029,8.263564,0.5000456,2.339782,3.169227,-9.570787,34.36497,10.3185,890.5096
9.506112099,-228.3514,176.847,13.64781,-0.7206556,-0.476523,-0.5081992,-9.570787,34.36497,10.3185,890.5114
9.528414250,552.5217,1930.077,-302.3094,14.61065,5.726073,-4.063211,-12.82396,18.77101,21.30823,890.5114
9.548237801,-80.44701,1930.077,-37.44133,-4.080248,-1.9928,-15.69596,-12.82396,18.77101,21.30823,890.5114
9.568057537,-51.1775,1297.064,-16.5162,-3.939017,0.6496071,-7.715744,-19.0809,13.4723,31.73647,890.5114
9.587881565,-10.32474,36.69463,22.27484,-1.030498,-1.06839,-0.9928839,-19.0809,13.4723,31.73647,890.5079
9.607705116,290.2793,163.5328,-24.95967,-0.2367304,0.7564093,-1.367813,-19.0809,13.4723,31.73647,890.5079
9.627529621,-182.5789,-28.40345,9.426071,-0.4022613,0.4328691,-0.8199877,32.99217,9.641405,-8.751776,890.5079
9.647353172,-26.64094,66.09186,1.227336,-0.1510048,-0.06597757,-0.6260008,32.99217,9.641405,-8.751776,890.5079
9.667177200,-1.792993,-43.42608,2.08392,-0.2239092,-0.2082415,-0.617171,25.44161,22.89524,-11.02015,890.5079
9.687000752,-23.21578,45.53147,3.674719,-0.5097352,-1.42531,-3.718751,25.44161,22.89524,-11.02015,890.5079
9.706824780,-297.7264,-179.5724,25.82354,0.8285586,-0.4683099,0.2802699,25.44161,22.89524,-11.02015,890.5061
9.726648331,18.50883,20.08136,-1.954263,-0.2867,-0.443108,-2.012862,24.74459,28.10768,-7.675866,890.5061
9.746472359,-70.66975,-98.62689,-1.525971,0.1445492,0.2313484,-0.06840868,24.74459,28.10768,-7.675866,890.5079
9.766292572,127.7402,8.711288,-10.21418,0.2273744,1.539392,-0.004335908,29.97379,29.00197,-17.19551,890.5079
9.786116600,3.62498,98.61143,-5.380601,-0.3632649,-1.05803,-1.569551,29.97379,29.00197,-17.19551,890.5079
9.805940151,-177.0987,-10.37629,10.52739,-1.464876,0.3899013,-0.9295757,29.97379,29.00197,-17.19551,890.5079
9.828241825,158.9402,132.1325,-18.41292,-0.6072745,0.006632805,-1.486455,6.119076,-2.811422,-11.85977,890.5096
9.848065853,63.96999,45.47256,-5.686524,0.174793,-0.2208332,-1.560983,6.119076,-2.811422,-11.85977,890.5096
9.867889404,-136.6196,28.9182,10.8945,-0.1769865,0.4137575,-0.987628,19.92879,22.63568,-9.163895,890.5062
9.887713909,-125.9704,-43.48499,2.573397,0.3375542,-1.09824,-1.092767,19.92879,22.63568,-9.163895,890.5062
9.907537937,-4.097188,-73.94264,1.166151,0.8718241,-0.4383511,0.901734,19.92879,22.63568,-9.163895,890.5081
9.927361488,-30.37747,45.47256,22.21365,1.125024,0.3869383,-2.975543,12.38894,17.36198,-3.006596,890.5081
9.947185516,-82.50211,670.4141,-8.5622,4.389485,1.30735,-5.135395,12.38894,17.36198,-3.006596,890.5098
9.967005253,42.17354,1930.018,-194.8081,10.4569,-0.4838576,-15.72999,4.530113,9.82682,30.09246,890.5098
9.986828804,185.4073,1930.077,-30.09918,-5.578357,1.652651,-13.52573,4.530113,9.82682,30.09246,890.5062
10.006653309,424.6077,1.995288,-10.88721,-4.722201,-1.84633,-0.7820444,4.530113,9.82682,30.09246,890.5062
10.026477337,232.2385,140.8515,-19.51424,-2.202066,0.03163385,-3.678395,-0.5245457,-15.5288,49.38618,890.5045
10.046300888,485.8246,-172.9153,-39.76635,-2.56428,-2.025894,0.3800285,-0.5245457,-15.5288,49.38618,890.5045
10.066124916,105.1964,111.0419,-58.06054,-0.3198446,2.461107,-1.445218,6.135609,13.89494,8.260288,890.5045
10.085948467,-274.9958,-40.6572,-4.646386,-2.803448,-0.5746782,-1.971094,6.135609,13.89494,8.260288,890.5045
10.108250141,-72.53802,-31.58471,13.64781,-0.02912799,-0.3661328,2.279108,6.135609,13.89494,8.260288,890.5012
10.128074646,186.7151,-182.4002,4.531304,-0.6862128,1.521879,1.89123,-3.810997,19.83147,0.6295075,890.5012
10.147898197,-194.2244,7.002833,9.242517,-0.2546165,0.5569195,-0.5445362,-3.810997,19.83147,0.6295075,890.5029
10.167718411,109.2443,287.4253,-40.50056,-0.2029419,1.740043,-1.235053,-6.827271,23.86591,-0.6287189,890.5029
10.187541962,-136.8687,170.5433,8.753041,0.05929322,-0.1123906,0.1052398,-6.827271,23.86591,-0.6287189,890.5029
10.207365990,214.1786,-162.1343,8.018826,0.6903945,-1.374486,3.987306,-6.827271,23.86591,-0.6287189,890.5029
10.227189541,97.72334,-30.99559,-20.67675,0.8435129,1.419689,1.914543,-6.846821,-2.450168,1.524882,890.5065
10.247014046,-207.8005,161.9421,-2.566109,-1.64788,-1.042367,-2.769508,-6.846821,-2.450168,1.524882,890.5065
10.266837597,26.29328,8.946938,17.19651,2.399807,0.7066111,1.011361,-6.317982,32.40255,7.737233,890.5082
10.286661625,-264.7204,2.878973,15.48335,1.418958,0.1378496,-1.558695,-6.317982,32.40255,7.737233,890.5082
10.306485176,-512.7015,67.38792,5.204334,0.06863419,-0.455659,0.8178769,-6.317982,32.40255,7.737233,890.5082
10.326309204,173.6995,-46.07713,13.46425,0.3675012,-3.57567,3.1229,-7.756155,33.96264,9.418447,890.51
10.346132755,-386.7181,51.95291,29.24988,0.4283043,-0.2067737,1.372462,-7.756155,33.96264,9.418447,890.51
10.365952492,67.14604,335.9101,-4.095725,1.440877,0.4006664,1.991996,-8.95529,23.00081,14.7438,890.5084
10.388255119,129.733,1930.077,-232.3755,11.22978,-0.1871869,-15.71223,-8.95529,23.00081,14.7438,890.5084
10.408078671,262.4422,1930.077,-46.12954,-5.279271,-1.035536,-15.69347,-8.95529,23.00081,14.7438,890.5067
10.427902699,-141.6016,60.61301,26.61894,-0.3693544,-0.9402723,1.536377,-23.37441,13.24857,37.80156,890.5067
10.447726250,264.9332,-29.22822,-1.036495,1.940823,-0.7916419,0.7897067,-23.37441,13.24857,37.80156,890.5049
10.467550278,-28.7583,-139.9244,5.999734,0.4206918,0.392442,-1.749447,30.88651,10.44876,-4.989456,890.5049
10.487373829,-120.4902,-1.06815,13.95373,-0.2598237,-0.3875073,-0.1324194,30.88651,10.44876,-4.989456,890.5084
10.507198334,105.4455,-13.43973,-4.952309,0.2068863,-0.04605752,-1.931274,26.16538,21.78175,-11.82373,890.5084
10.527022362,90.9353,55.72329,-8.684569,0.005607333,0.5532964,-0.9756401,26.16538,21.78175,-11.82373,890.5084
10.546845913,87.01194,91.48305,-11.07077,0.06919611,0.855746,-1.299592,26.16538,21.78175,-11.82373,890.5084
10.566665650,62.78675,131.838,-4.585201,-0.546874,-0.51293,-0.9668683,23.91681,28.83715,-8.544274,890.5051
10.586489678,87.07421,111.1008,-5.747708,-0.6350727,0.7088654,-1.877354,23.91681,28.83715,-8.544274,890.5051
10.606313229,63.1604,64.20667,-3.606248,0.02201043,0.3429199,-1.159023,26.14082,29.15217,-9.838796,890.5051
10.626137257,-53.66853,16.13424,3.919458,0.01068903,-1.582498,-2.014652,26.14082,29.15217,-9.838796,890.5051
10.645961762,-41.89845,77.69758,0.003643602,0.9347946,0.4958033,-1.902467,26.14082,29.15217,-9.838796,890.5068
10.668263436,-59.0865,-2.894431,-0.7917562,1.362175,-0.1971802,0.2756056,25.48473,-2.828623,-19.46205,890.5068
10.688086987,46.59511,-59.86261,-1.954263,-0.3731509,-0.8614169,-1.277475,25.48473,-2.828623,-19.46205,890.5087
10.707911015,-34.61221,-46.07713,4.225381,-0.546941,0.09559203,-1.023553,19.23798,21.93365,-7.892577,890.5087
10.727734566,-167.446,108.6854,-5.931262,-0.313677,0.3695406,-1.345494,19.23798,21.93365,-7.892577,890.5121
10.747558594,41.17714,36.87136,-5.808893,-0.6165888,0.2275515,-0.6657152,19.23798,21.93365,-7.892577,890.5121
10.767378807,78.66702,35.10399,2.451027,-0.4945199,-0.0695207,-1.422045,17.84431,17.59618,-6.915734,890.5139
10.787202835,-73.65897,103.2655,13.95373,-0.1334852,-1.181129,-2.706882,17.84431,17.59618,-6.915734,890.5139
10.807026386,-51.55116,1917.764,-7.277323,3.136416,-2.152812,-15.71259,8.284267,14.73809,19.7204,890.5157
10.826850414,86.88739,1930.077,52.68358,-3.809971,-1.443367,-15.69675,8.284267,14.73809,19.7204,890.5157
10.846673966,-308.251,133.7232,31.63608,-3.936026,-2.161242,-4.031463,8.284267,14.73809,19.7204,890.507
10.866497517,737.9783,-131.5589,-27.83535,2.836537,2.993836,5.832857,10.65063,-20.23847,64.19256,890.507
10.886322021,-23.71399,-157.657,9.364887,-0.3389882,-1.211705,0.06290491,10.65063,-20.23847,64.19256,890.5089
10.906146049,196.2433,-23.21917,-8.623384,1.831363,-0.6803536,-0.5331898,12.14498,8.011911,10.80023,890.5089
10.925969601,-36.4182,-41.48198,-80.88239,-3.482252,3.406044,-2.520914,12.14498,8.011911,10.80023,890.5089
10.948271275,20.3771,-59.74479,-3.177955,0.4782329,0.2081997,1.185945,12.14498,8.011911,10.80023,890.5089
10.968091488,631.3002,71.39396,-1.893079,0.2390747,0.8085468,2.523325,-1.59502,19.77693,-1.09402,890.5106
10.987915039,-273.7503,81.52687,2.87932,-0.6326724,-0.7625204,-4.407276,-1.59502,19.77693,-1.09402,890.5106
11.007739067,-92.09254,-52.79314,-7.889169,-0.9373245,-3.455939,1.434512,-5.347198,23.84937,-0.2217293,890.5089
11.027563095,169.3402,-150.8821,-0.1799102,0.701441,0.5487295,1.47313,-5.347198,23.84937,-0.2217293,890.5089
11.047387123,-475.2117,-31.34907,41.30325,-0.1014807,-0.9281552,0.3002714,-5.347198,23.84937,-0.2217293,890.5089
11.067210674,90.31255,242.2985,12.17938,-1.191594,-0.2171179,-0.1839502,-10.28324,3.030322,-1.058425,890.5089
11.087034702,-288.821,-7.843063,-3.483878,-0.577763,-0.3282298,-0.5650794,-10.28324,3.030322,-1.058425,890.509
11.106858254,48.33882,2.878973,13.77018,-0.1845841,0.6651853,1.862069,-6.63954,29.49998,8.231445,890.509
11.126682282,59.11249,44.64779,-47.59797,-0.9050702,3.965561,-0.8471568,-6.63954,29.49998,8.231445,890.5107
11.146505833,-479.0105,-29.16931,-2.749663,-1.369932,0.5312297,1.38502,-6.63954,29.49998,8.231445,890.5107
11.166326523,-223.3071,36.04659,-1.342417,-0.6962451,-0.4972169,1.095485,-5.588194,32.75577,7.716543,890.5126
11.186150074,-71.85298,-23.16026,-9.051677,0.04671903,0.9635838,1.469253,-5.588194,32.75577,7.716543,890.5126
11.205974102,-257.3718,156.5222,20.37811,0.4605617,-0.9823968,1.401347,-9.140287,26.64027,9.577076,890.5092
11.228275776,374.725,1930.077,-323.051,14.65734,8.931623,-2.938436,-9.140287,26.64027,9.577076,890.5092
11.248099327,-55.03859,1930.077,13.64781,-2.234431,-1.500932,-15.70037,-9.140287,26.64027,9.577076,890.5075
11.267923355,-57.09368,1166.102,-18.65766,-4.805625,0.07892662,-7.217946,-19.7901,18.11481,47.4803,890.5075
11.287747860,-88.16917,-58.97892,9.242517,-2.123686,-0.1532385,0.9531055,-19.7901,18.11481,47.4803,890.5075
11.307571411,242.6385,79.93624,-5.013493,-0.6633955,0.7095081,-2.426552,27.75904,17.22467,3.915406,890.5075
11.327395439,-175.2304,20.19918,10.58858,-1.182317,-0.0355553,-0.5896275,27.75904,17.22467,3.915406,890.5092
11.347218990,-7.335516,14.77925,-7.522062,-0.2011059,-0.1496813,-1.10042,27.75904,17.22467,3.915406,890.5092
11.367038727,-28.13555,-17.03338,7.223426,0.1948589,-0.0202844,-1.561088,26.90374,20.30869,-12.24761,890.5109
11.386862755,-85.67815,42.64476,8.447118,-0.3255512,-1.759338,-2.329398,26.90374,20.30869,-12.24761,890.5109
11.406686306,-263.4126,-147.4652,12.73004,0.4746555,-0.9810982,-0.5768968,23.17684,27.3814,-9.312935,890.5093
11.426510811,79.28977,0.4046567,-2.076633,0.4628174,-0.4541433,-1.104738,23.17684,27.3814,-9.312935,890.5093
11.446334839,-63.50806,-26.34152,2.328658,0.1691975,0.166711,-0.3150645,23.17684,27.3814,-9.312935,890.5093
11.466158390,51.4526,42.64476,-7.399693,-0.7039043,0.8062504,-0.419544,22.17209,28.17231,-5.571968,890.5112
11.485981941,6.676482,-79.42149,3.062873,-0.2043572,-0.1676657,-1.179421,22.17209,28.17231,-5.571968,890.5112
11.508284092,-171.8675,48.30035,5.877365,-0.9966313,0.4261679,-1.185427,40.92445,11.09325,-28.54468,890.5129
11.528107643,33.26814,28.03452,-4.095725,-1.262077,-0.01791961,-0.7982355,40.92445,11.09325,-28.54468,890.5129
11.547931671,66.46101,96.96189,-1.158864,0.159016,-0.1135398,-2.433478,18.92003,20.86274,-6.559714,890.5129
11.567751885,-90.41109,-29.64061,-0.6082023,0.8900926,0.4489275,-0.3905586,18.92003,20.86274,-6.559714,890.5129
11.587575913,-32.49484,3.880481,4.408935,-0.2333654,-0.1697196,-0.8929895,18.92003,20.86274,-6.559714,890.5114
11.607399464,20.06573,32.98315,-0.4246486,0.226258,-0.1708158,-0.8514315,22.84072,20.38525,-10.92396,890.5114
11.627223015,-3.78581,61.0254,6.428026,1.135209,0.4540986,-1.95703,22.84072,20.38525,-10.92396,890.5131
11.647047043,-57.77871,713.1844,-30.09918,5.008441,-0.1521153,-9.033439,10.58275,18.30154,11.45562,890.5131
11.666870594,14.58548,1930.077,-121.6313,7.272161,0.04862383,-15.72279,10.58275,18.30154,11.45562,890.5149
11.686694622,153.2731,1925.953,-23.91953,-7.317696,1.420382,-13.86212,10.58275,18.30154,11.45562,890.5149
11.706519127,375.7837,-58.97892,-17.55634,-3.285168,-1.963285,1.013783,4.540295,-11.58154,74.36745,890.5096
11.726342678,227.381,74.22175,-25.14323,-1.428257,0.7671112,-1.749117,4.540295,-11.58154,74.36745,890.5096
11.746166706,498.3419,163.2971,-51.4526,-1.325951,0.8559399,3.13988,18.28037,-1.564522,14.2133,890.5114
11.765986443,10.41301,260.2078,11.01687,2.784709,-2.240194,0.8772514,18.28037,-1.564522,14.2133,890.5114
11.788288117,-189.9897,107.3305,-30.4051,-1.666604,0.7941845,-0.9498195,18.28037,-1.564522,14.2133,890.5114
11.808111668,-172.3657,-165.021,26.74131,-0.7746065,-1.523709,1.627512,-0.1598186,20.47262,-2.006322,890.5114
11.827935696,70.57119,-172.7385,14.56558,-0.0413921,1.938892,2.1688,-0.1598186,20.47262,-2.006322,890.5114
11.847760201,-73.03622,29.74297,-20.92149,0.2330669,-0.5401998,-0.08371092,-4.58647,23.48423,0.5792022,890.5114
11.867583752,438.9933,110.9241,34.08346,-0.3630055,-0.3467648,3.320936,-4.58647,23.48423,0.5792022,890.5114
11.887407780,-13.999,131.5434,-9.174046,-1.367491,2.80428,1.526572,-4.58647,23.48423,0.5792022,890.5114
11.907231331,18.38428,-196.0089,15.91164,2.296749,-2.636203,5.127984,-10.81809,12.53903,-3.335285,890.5081
11.927055359,-78.57874,-255.3336,30.22883,-0.4373926,1.433067,2.032427,-10.81809,12.53903,-3.335285,890.5081
11.946878910,-262.9767,116.0495,-12.78394,-1.841713,-0.4343909,-2.276961,-6.598007,25.85818,8.295986,890.5081
11.966698647,60.17118,290.312,48.70658,1.037578,-1.191224,3.653157,-6.598007,25.85818,8.295986,890.5081
11.986523151,-484.989,-138.6283,52.92832,2.398262,1.135165,2.22661,-6.598007,25.85818,8.295986,890.5098
12.006347179,-411.317,123.06,-16.57738,-0.7070031,-0.3571634,0.7655275,-6.717361,32.02771,6.444422,890.5098
12.026170731,-121.4866,-146.5226,4.286565,0.7801844,-1.811142,-0.1013629,-6.717361,32.02771,6.444422,890.5098
12.045994759,-276.4904,32.7475,25.15051,0.7969374,1.515003,2.619519,-9.911333,28.83092,9.117126,890.5098
12.068296433,64.90412,469.2875,-10.88721,1.987032,1.32645,-0.4905604,-9.911333,28.83092,9.117126,890.5084
12.088119984,139.9462,1930.077,-236.0465,8.644342,-0.5488198,-15.59936,-9.911333,28.83092,9.117126,890.5084
12.107944012,272.6553,1930.077,-59.03949,-6.745642,-1.273869,-15.69002,-19.85628,22.84377,46.96094,890.505
12.127768517,-147.2687,101.4981,24.4163,0.3595149,-0.8647397,1.753515,-19.85628,22.84377,46.96094,890.505
12.147592068,207.3283,-100.571,16.58467,1.821706,-0.675395,0.0903193,1.233677,31.62673,12.70771,890.505
12.167411804,-13.62535,-81.66016,-1.954263,-0.03172391,0.3327614,-1.789568,1.233677,31.62673,12.70771,890.505
12.187235832,-98.13326,25.50129,1.594443,-0.4702673,-0.144839,-0.6865355,1.233677,31.62673,12.70771,890.5084
12.207059383,83.89816,17.96052,4.898411,0.004472494,0.1463712,-2.212438,29.45674,18.4333,-13.57155,890.5084
12.226883411,53.50769,56.54807,-9.357599,-0.3713961,-0.1972046,-0.6221012,29.45674,18.4333,-13.57155,890.5103
12.246706963,140.0084,96.07821,-14.86421,-0.2166253,1.032554,-1.475686,23.18515,26.65304,-9.300027,890.5103
12.266530991,127.3042,104.2081,-6.604293,-0.3547104,0.3873525,-0.6946203,23.18515,26.65304,-9.300027,890.5087
12.286355019,40.74121,141.7352,-11.56025,-0.003177673,-0.4440636,-2.595344,23.18515,26.65304,-9.300027,890.5087
12.306179047,-48.3751,65.97403,1.166151,-0.6043074,0.0801089,-1.405554,22.59224,26.72626,-4.246887,890.5087
12.326002598,51.63943,-36.71008,1.839182,0.6127701,-0.6219529,-1.067684,22.59224,26.72626,-4.246887,890.5087
12.348304749,-97.32368,47.1221,13.77018,1.181255,-0.113503,-2.483248,38.88154,18.77608,-32.9381,890.5121
12.368124485,-148.016,-86.72661,11.93464,1.218776,-0.3128352,0.9483037,38.88154,18.77608,-32.9381,890.5121
12.387948036,104.1377,13.36536,-9.051677,-0.2793109,-0.5545832,-2.223549,38.88154,18.77608,-32.9381,890.514
12.407772064,36.75557,-66.22514,-6.053631,-1.023578,-0.2729121,-1.124343,15.61341,20.17831,-6.918206,890.514
12.427596092,-123.4171,141.5585,1.227336,0.1015261,-0.1523553,-1.792607,15.61341,20.17831,-6.918206,890.5106
12.447420120,-23.09123,12.71732,-4.095725,0.3249188,-0.3948576,-1.106352,22.7771,21.82121,-12.62941,890.5106
12.467243672,68.08017,-33.64664,-1.036495,-0.559997,0.1909184,-0.4920055,22.7771,21.82121,-12.62941,890.5124
12.487067700,-36.4182,105.0918,20.4393,-1.033927,-1.235553,-3.504977,22.7771,21.82121,-12.62941,890.5124
12.506891251,16.70284,1918.176,-44.11045,4.716387,-0.5413972,-15.71671,11.83178,20.7451,4.601222,890.5124
12.526715279,61.29214,1930.077,72.20148,-2.524714,-0.7770686,-15.69991,11.83178,20.7451,4.601222,890.5124
12.546538830,-374.0139,110.8063,24.96696,-3.323063,-1.172989,-1.57944,2.158319,-8.334076,69.25096,890.5089
12.566359520,688.5938,-81.83689,-42.03017,2.545799,3.138175,5.914415,2.158319,-8.334076,69.25096,890.5089
12.586183071,114.9114,-132.3836,11.01687,0.7281952,0.6063005,1.967245,19.23816,-7.39387,19.90219,890.5089
12.606007099,247.2469,-85.84293,-25.75507,1.854816,-1.600795,2.372328,19.23816,-7.39387,19.90219,890.5073
12.628308773,-323.2594,110.1582,36.7144,1.750077,-1.356766,4.755833,19.23816,-7.39387,19.90219,890.5073
12.648132324,-136.8064,-67.87468,23.80445,1.705808,-1.204988,0.5207672,0.6026516,20.10824,-1.143182,890.5073
12.667956352,117.091,53.72028,-13.21223,0.985741,1.491784,0.2817267,0.6026516,20.10824,-1.143182,890.5073
12.687779904,96.5401,88.71417,-18.59647,0.292034,0.4755129,0.6911452,-5.299917,22.77221,1.041807,890.5073
12.707603932,-210.2915,3.998306,1.166151,1.428212,-0.6040449,1.349198,-5.299917,22.77221,1.041807,890.5073
12.727428436,59.42387,-98.68581,-0.7305716,0.04685482,3.51281,2.125515,-5.299917,22.77221,1.041807,890.5039
12.747251988,-116.4423,67.97705,2.451027,0.6247556,-0.9152864,1.098781,-9.40904,17.67632,-3.45519,890.5039
12.767071724,199.6061,195.9345,20.62285,0.9417458,-3.542795,0.7913844,-9.40904,17.67632,-3.45519,890.5039
12.786895752,-222.4353,-151.3534,8.630672,1.079841,-1.234082,0.4915742,-6.542782,18.86732,7.548769,890.5039
12.806719303,30.27891,-51.90945,3.124058,-1.075615,-0.1906328,0.5302476,-6.542782,18.86732,7.548769,890.5039
12.826543331,93.55087,43.64627,-62.71057,-1.002477,1.926161,-0.8678833,-6.542782,18.86732,7.548769,890.5039
12.846366883,-518.9914,138.554,9.548441,0.8862881,-0.3467778,0.4558461,-7.088484,32.39737,6.445086,890.5057
12.866190910,-168.0064,214.7865,-14.86421,-0.1257623,0.2643408,2.095739,-7.088484,32.39737,6.445086,890.5057
12.886015415,44.29091,-183.2249,22.33602,-0.9533351,0.7213399,0.5000079,-9.565126,30.64634,9.077738,890.5042
12.908317089,-261.6689,244.4193,17.93073,0.7465736,0.141857,2.103816,-9.565126,30.64634,9.077738,890.5042
12.928140640,604.2726,1930.077,-323.4181,14.60806,6.086162,-1.569837,-9.565126,30.64634,9.077738,890.5059
12.947964668,-80.13564,1930.077,25.88473,-1.946723,-1.088645,-15.70116,-20.37433,23.51458,41.85403,890.5059
12.967784405,-98.38237,1227.547,-20.92149,-4.25955,1.288438,-6.592721,-20.37433,23.51458,41.85403,890.5023
12.987607956,42.60947,-21.27506,12.4853,-1.545871,-0.8326783,-0.151346,-13.60067,24.68029,22.08905,890.5023
13.007431984,219.1606,154.5781,-20.67675,-0.6344651,0.7060775,-1.662342,-13.60067,24.68029,22.08905,890.5007
13.027255535,-169.3765,1.641815,7.835271,-0.605002,0.4756723,-0.8358134,-13.60067,24.68029,22.08905,890.5007
13.047080040,-63.63261,34.22031,6.366842,0.1587024,-0.1309898,-0.4677125,32.08314,15.49227,-12.69882,890.5026
13.066904068,-0.9834106,-39.59678,0.554305,-0.2995137,-0.5063905,-1.112539,32.08314,15.49227,-12.69882,890.5026
13.086727619,-6.152281,26.38497,2.87932,-0.510874,-1.344913,-3.178128,23.93155,25.54954,-9.2949,890.5009
13.106551170,-262.2293,-172.8564,16.70704,0.9116992,-0.4642812,0.3049779,23.93155,25.54954,-9.2949,890.5009
13.126375198,38.87294,29.56624,-4.218093,0.04401676,-0.5005815,-1.188038,23.93155,25.54954,-9.2949,890.5028
13.146198750,-83.37396,-89.02419,1.961551,0.1728188,0.1684147,0.1125572,23.31815,26.34574,-4.69013,890.5028
13.166018963,126.8683,24.79434,-12.35565,0.2793377,1.253031,-0.3285668,23.31815,26.34574,-4.69013,890.5045
13.185842514,72.62629,81.70361,-13.02868,0.1517029,-0.9518007,-1.645475,34.47292,22.49976,-31.61085,890.5045
13.208145142,-233.7694,-23.39591,12.66885,-0.7690255,0.3040946,-0.3167683,34.47292,22.49976,-31.61085,890.5063
13.227968693,118.3988,107.4483,-15.65961,-0.8884907,0.1810189,-1.336449,34.47292,22.49976,-31.61085,890.5063
13.247792721,55.99871,28.97711,-5.808893,0.1721029,-0.3744105,-0.8914718,10.45619,16.61413,-6.752828,890.5098
13.267616272,-123.6662,-10.49412,4.898411,0.3160309,0.3753045,-0.9887557,10.45619,16.61413,-6.752828,890.5098
13.287439823,-138.3633,-10.02282,4.286565,0.05542552,-0.580707,-1.055873,20.93394,22.57697,-12.60673,890.5065
13.307263851,41.73761,-17.38685,-3.116771,1.765941,-1.738867,2.044069,20.93394,22.57697,-12.60673,890.5065
13.327087402,-39.28287,75.93021,15.05505,1.145425,0.2133914,-3.009539,20.93394,22.57697,-12.60673,890.5082
13.346911430,-127.7764,603.1362,-1.587156,4.373403,1.841286,-3.769298,12.09053,21.78988,1.153263,890.5082
13.366731644,26.66693,1930.018,-193.8904,10.82845,-0.5023505,-15.73084,12.09053,21.78988,1.153263,890.5082
13.386555672,164.6073,1929.841,-36.21764,-6.819669,1.855235,-15.10128,3.782709,0.2234468,52.0071,890.5082
13.406379223,516.3396,-58.15415,-11.31551,-3.254564,-1.858677,-0.01780315,3.782709,0.2234468,52.0071,890.5082
13.426203251,261.6326,90.3048,-21.71689,-1.426394,0.02450141,-2.451405,3.782709,0.2234468,52.0071,890.5082
13.446026802,608.1337,82.23382,-55.12368,-1.303161,1.310287,2.38739,13.58288,-13.83206,27.35073,890.5049
13.465850830,236.411,140.6159,-52.79866,-0.1484362,4.716815,-0.6508729,13.58288,-13.83206,27.35073,890.5049
13.488152504,-361.8079,-119.4229,25.63999,0.7884364,-0.8830819,3.093843,1.437323,16.48162,1.022219,890.5067
13.507976055,127.0551,-51.26142,20.37811,0.3628886,2.092008,2.797534,1.437323,16.48162,1.022219,890.5067
13.527800560,246.1882,-205.0225,-26.12218,-1.173084,2.110387,0.7654024,-5.642242,21.69053,1.503748,890.5067
13.547624588,-284.5862,-57.9185,10.83332,0.406203,-1.065666,-1.281131,-5.642242,21.69053,1.503748,890.5067
13.567444325,82.71493,297.2047,12.36293,1.757002,-2.7527,0.9611837,-5.642242,21.69053,1.503748,890.5084
13.587267876,-252.6389,137.6114,14.99387,0.5520709,-1.024962,0.6981671,-8.337469,21.30706,-3.105624,890.5084
13.607091904,492.6749,-186.1705,-4.70757,2.114269,1.359022,5.385825,-8.337469,21.30706,-3.105624,890.5068
13.626915455,28.59748,-90.96829,10.28266,-1.292045,1.035161,1.672014,-6.132502,10.76768,5.942874,890.5068
13.646739483,33.14359,-82.95622,5.387888,0.4984181,-1.382284,-2.034513,-6.132502,10.76768,5.942874,890.5087
13.666563034,-23.34033,29.74297,38.42757,-0.5864826,0.1733533,1.350272,-6.132502,10.76768,5.942874,890.5087
13.686387062,-240.0592,234.9934,-3.177955,2.104206,0.6275473,2.232706,-6.342628,33.48971,7.28241,890.5104
13.706211567,-383.3553,39.28677,-9.541153,0.07241461,0.0899103,0.5811467,-6.342628,33.48971,7.28241,890.5104
13.726035118,44.66457,-47.49103,12.24056,0.3029289,-2.783586,0.8927214,-9.541296,32.85294,10.78086,890.5104
13.745859146,-340.8211,61.79126,22.33602,-0.7695726,0.1916032,-1.712639,-9.541296,32.85294,10.78086,890.5104
13.768156529,110.4275,472.8812,-23.85835,1.389381,0.6019753,0.07849314,-9.541296,32.85294,10.78086,890.5121
13.787980557,131.9749,1930.077,-232.559,8.486649,-0.5809215,-15.62772,-20.69147,19.71445,29.10359,890.5121
13.807804108,263.9368,1930.077,-33.40315,-5.818284,-1.311593,-15.69215,-20.69147,19.71445,29.10359,890.5121
13.827628136,-96.63865,99.49512,26.61894,0.5345095,-0.6572881,1.79136,-14.80729,11.15306,26.1532,890.5053
13.847451687,238.3415,-51.55598,8.018826,1.454074,-0.4767946,0.6676694,-14.80729,11.15306,26.1532,890.5053
13.867275715,32.14718,-91.02721,3.062873,-0.1149946,0.5019783,-1.853115,-14.80729,11.15306,26.1532,890.5053
13.887100220,-164.7681,16.31097,9.976733,-0.319596,-0.5801874,-0.3979975,34.05177,13.23895,-11.01616,890.5053
13.906923771,128.8611,21.31852,-4.156909,-0.1323325,-0.2000147,-2.325513,34.05177,13.23895,-11.01616,890.507
13.926747799,92.99039,24.44087,-8.745753,0.3609363,-0.0630876,-1.410615,23.90745,24.44086,-10.58192,890.507
13.946571350,9.665708,40.70066,-4.03454,0.02523765,0.9260221,-0.4916574,23.90745,24.44086,-10.58192,890.507
13.966391087,84.39636,125.122,-6.726662,-0.8387245,-0.1257949,-0.5587894,23.90745,24.44086,-10.58192,890.507
13.986215115,73.12449,119.1718,-5.380601,0.01937474,0.1073649,-1.734071,24.78531,27.75964,-6.36303,890.5057
14.006038666,21.68489,99.55403,-4.03454,0.1862872,0.01243991,-1.180376,24.78531,27.75964,-6.36303,890.5057
14.025862694,15.51961,-25.51675,-0.4858332,-0.08459067,-1.110777,-2.290878,32.34946,25.95026,-25.28083,890.5075
14.048164368,-97.75961,106.27,10.64976,0.8307974,0.2220492,-2.546227,32.34946,25.95026,-25.28083,890.5075
14.067988873,-73.22305,-40.18591,4.408935,1.157958,0.03797011,0.5585415,32.34946,25.95026,-25.28083,890.5075
14.087812424,84.08498,-46.78408,-6.726662,-0.342199,-0.3545028,-1.62296,4.560507,8.239759,-8.603331,890.5075
14.107636452,62.59992,-12.73278,-6.176001,-0.4181886,0.4488352,-1.720709,4.560507,8.239759,-8.603331,890.511
14.127460003,-136.3705,128.5978,-7.522062,-0.07924447,0.1680723,-1.057697,20.59938,22.96277,-11.29968,890.511
14.147283554,-29.38106,21.31852,-0.4246486,-0.04406286,0.04418994,-0.1545935,20.59938,22.96277,-11.29968,890.5077
14.167103767,91.37122,-10.02282,0.3707512,-0.3650932,0.2932669,-1.195945,20.59938,22.96277,-11.29968,890.5077
14.186927319,-104.9836,110.5706,28.7604,-0.6183718,-0.9867514,-2.975901,11.67294,19.94295,-1.357904,890.5095
14.206751347,-79.07695,1918.235,-18.84121,8.459664,-1.702294,-15.72502,11.67294,19.94295,-1.357904,890.5095
14.226574898,67.51969,1930.077,89.82264,-2.229095,-0.8381916,-15.70058,5.036526,6.390249,46.76672,890.5077
14.246399403,-152.2507,51.54052,45.34143,-0.005634624,-3.23646,1.78187,5.036526,6.390249,46.76672,890.5077
14.266222954,569.087,-165.6691,-24.4702,2.753374,2.696955,5.691391,5.036526,6.390249,46.76672,890.5059
14.286046982,100.6503,-173.0331,-2.260186,0.06878852,-0.633594,-0.3126826,2.227461,-14.18971,43.33139,890.5059
14.305870533,176.0037,-117.1843,-11.56025,1.943704,2.377529,-0.1847706,2.227461,-14.18971,43.33139,890.5077
14.328172207,-320.021,-84.60577,23.07024,1.05949,1.22061,4.001495,2.677126,15.79447,5.679425,890.5077
14.347996235,110.8635,137.0222,-4.891124,1.044049,-0.7511654,-0.253127,2.677126,15.79447,5.679425,890.5043
14.367815971,-95.70452,88.06614,44.54603,1.645554,-2.98215,-0.8213234,2.677126,15.79447,5.679425,890.5043
14.387639523,-115.8195,115.8138,4.286565,0.04425804,0.6886918,1.472213,-5.621475,19.86963,1.536019,890.5062
14.407463551,-20.60021,78.93473,-4.585201,-1.16066,-2.728969,1.755179,-5.621475,19.86963,1.536019,890.5062
14.427288056,223.1463,-119.1873,0.9825971,-0.4966659,0.7878011,0.9035783,-7.577284,23.13775,-1.472496,890.5062
14.447111607,-259.4892,-90.55591,25.88473,0.07290641,1.004925,0.2748797,-7.577284,23.13775,-1.472496,890.5062
14.466935635,408.3538,253.7864,-14.37474,-1.280015,2.02245,4.119678,-5.708019,1.576262,4.41855,890.5062
14.486759186,-199.8292,59.49368,-10.33655,2.037806,-0.9322754,-1.366826,-5.708019,1.576262,4.41855,890.5062
14.506583214,131.103,-85.48946,15.05505,-0.5839924,-3.299865,1.511706,-5.708019,1.576262,4.41855,890.5062
14.526406765,226.0732,70.51028,-71.76588,-1.935944,1.616642,-2.441596,-5.963469,33.48961,7.710752,890.5062
14.546230793,-565.5735,-4.367238,27.1696,1.898034,0.7731923,3.008429,-5.963469,33.48961,7.710752,890.5045
14.566050530,-157.7932,178.4376,-7.705616,-0.857128,-0.02864009,0.8629887,-9.566633,34.00079,10.32496,890.5045
14.585874081,129.297,-39.95026,-11.86617,0.2809798,2.272743,1.944325,-9.566633,34.00079,10.32496,890.5063
14.608175755,-376.6918,264.7441,4.286565,0.3451965,-1.626967,1.329493,-9.566633,34.00079,10.32496,890.5063
14.628000260,482.8353,1930.077,-354.2552,16.06836,7.012813,-0.6890094,-12.09636,19.46136,19.16481,890.5063
14.647824288,-98.00871,1930.077,83.2147,-2.369796,-1.547201,-15.70005,-12.09636,19.46136,19.16481,890.5063
14.667647839,-252.0784,1001.737,-18.47411,-7.576892,2.924791,-5.903148,-13.97343,10.8202,29.5669,890.5028
14.687471867,96.35327,-189.4107,7.651718,0.016938,-1.566142,0.703393,-13.97343,10.8202,29.5669,890.5028
14.707295418,180.7989,13.01189,-4.646386,-0.4308538,0.5838239,-2.434236,-13.97343,10.8202,29.5669,890.5012
14.727119446,-248.4042,-23.69047,8.753041,-0.1624697,-0.9860865,0.03226222,38.57584,12.12831,-7.225275,890.5012
14.746942997,34.20227,13.36536,-2.504925,-0.2025699,0.1727026,-0.9549351,38.57584,12.12831,-7.225275,890.5029
14.766762734,38.99749,-5.840045,0.1871974,-0.1454951,-0.07518904,-1.686707,23.91256,22.91807,-10.99049,890.5029
14.786586762,-123.1058,24.32304,3.307612,-0.09230235,-1.173935,-2.035125,23.91256,22.91807,-10.99049,890.5029
14.806410313,-190.3634,-127.7885,17.2577,0.5240379,-0.5370297,-0.1590877,23.91256,22.91807,-10.99049,890.5029
14.826234818,81.65624,11.53908,-1.158864,0.3535343,-0.2794732,-2.131233,24.74044,28.47186,-7.682321,890.5048
14.846058846,-60.51883,-9.492607,-1.097679,0.5821296,-0.009147061,-0.2647279,24.74044,28.47186,-7.682321,890.5048
14.865882397,105.3832,17.96052,-5.258232,-0.06323361,0.9079723,-0.7112489,29.28056,28.66489,-15.86844,890.5048
14.888184071,-69.79789,-123.6057,11.75109,0.9455609,-0.9720373,-0.6258743,29.28056,28.66489,-15.86844,890.5031
14.908008099,-161.2184,-46.3717,13.15833,-1.207244,0.5515491,-0.4345881,29.28056,28.66489,-15.86844,890.505
14.927831650,79.22749,25.73694,-9.969445,-0.6671914,-0.1390464,-0.9518549,7.204882,-4.725594,-13.15416,890.505
14.947655678,71.00713,79.28821,-2.810848,0.2552504,-0.006429674,-1.847596,7.204882,-4.725594,-13.15416,890.505
14.967475414,-64.56674,-22.51222,3.246427,0.4093884,0.6463878,-0.6064339,19.94098,22.64106,-8.728434,890.505
14.987298965,-120.3034,-4.42615,4.470119,-0.01152976,-0.7651179,-0.788455,19.94098,22.64106,-8.728434,890.505
15.007122993,42.92085,-11.90801,-4.585201,0.4079483,-0.1807283,-0.3959644,19.94098,22.64106,-8.728434,890.505
15.026947498,-91.09613,7.827605,13.64781,0.9115776,0.6676838,-1.844042,12.744,16.25321,-3.865273,890.505
15.046771050,-3.163055,567.6121,-37.99199,4.092742,2.609104,-6.004239,12.744,16.25321,-3.865273,890.5034
15.066595078,15.14596,1929.959,-203.8023,12.51447,-0.2680219,-15.73481,5.645082,11.64665,31.28301,890.5034
15.086418629,171.6444,1930.077,-49.80062,-5.770168,0.8410012,-13.3426,5.645082,11.64665,31.28301,890.4998
15.106242180,370.1166,-105.6964,-24.34783,-3.106368,-1.357164,-0.4061769,5.645082,11.64665,31.28301,890.4998
15.126066208,235.6014,167.3621,-18.35174,-1.318823,-0.3177933,-2.91462,-2.151087,-16.11356,58.76717,890.5015
15.145889759,576.6223,238.9405,-51.81971,0.6905163,0.2191126,1.786433,-2.151087,-16.11356,58.76717,890.5015
15.168187618,460.0425,294.0235,-24.77612,-2.317008,5.143745,0.3294694,7.255276,13.15475,8.625095,890.5015
15.188011646,-369.281,50.42119,-4.095725,-1.07649,0.1318534,-1.643434,7.255276,13.15475,8.625095,890.5015
15.207835197,196.3678,-287.3229,34.57294,-1.154555,-1.015659,0.5742489,7.255276,13.15475,8.625095,890.5
15.227659702,-18.85649,-76.88826,-11.7438,0.0529887,1.545727,-0.4765793,-3.382593,18.72717,0.2051048,890.5
15.247483254,-191.2975,-30.64212,7.651718,0.7866989,-1.206554,1.143027,-3.382593,18.72717,0.2051048,890.5018
15.267307282,-86.23863,108.5087,-49.12759,0.4880792,2.730635,-0.4501572,-5.710018,23.49067,-0.2081571,890.5018
15.287130833,-134.6267,-128.2598,14.81032,-0.07354121,1.081861,-0.03942189,-5.710018,23.49067,-0.2081571,890.5018
15.306954861,387.9274,-314.8939,34.57294,0.3908588,-3.682932,2.77043,-5.710018,23.49067,-0.2081571,890.5018
15.326778412,-40.65294,-195.0074,16.82941,-0.8822024,1.068861,1.914323,-7.62175,-0.9932523,0.6423798,890.5002
15.346602440,-94.45901,38.46199,3.368796,0.8186735,-0.5290723,-1.548972,-7.62175,-0.9932523,0.6423798,890.5002
15.366422176,-22.21937,47.18101,-55.00131,0.09912907,4.266268,-2.404933,-6.658165,32.05384,8.559517,890.502
15.386245728,-273.4389,14.5436,19.15442,0.9933471,0.2700294,2.651514,-6.658165,32.05384,8.559517,890.502
15.406069756,-421.7793,-56.85808,13.89255,1.174793,-1.504442,1.985986,-6.658165,32.05384,8.559517,890.5037
15.425893307,73.8718,-47.90342,8.87541,-0.8115134,0.4196563,-0.2415215,-7.041746,33.51604,8.540819,890.5037
15.448195934,-351.9684,-27.46086,20.68404,-0.2287309,1.561944,3.305222,-7.041746,33.51604,8.540819,890.5056
15.468019486,137.3306,480.1863,-18.29055,0.8325992,0.5735949,-2.404588,-8.321539,24.40967,11.71774,890.5056
15.487843514,8.918402,1930.077,-132.3998,3.802679,-3.517044,-15.39097,-8.321539,24.40967,11.71774,890.5056
15.507667065,271.0362,1930.077,49.4408,-4.39904,-2.10207,-15.6952,-17.2659,17.69076,45.69509,890.5056
15.527491093,-93.7117,249.6036,7.345795,0.4905842,-1.479557,1.279311,-17.2659,17.69076,45.69509,890.5004
15.547314644,133.1581,48.88947,-9.112862,1.025703,0.4423016,-0.7873741,-17.2659,17.69076,45.69509,890.5004
15.567134380,-67.9919,-70.17226,4.592488,0.3813788,-0.05398551,-0.3676868,30.62315,18.24725,1.724006,890.5004
15.586958408,-32.24574,-30.053,4.470119,0.1120569,-0.1987951,-0.6299217,30.62315,18.24725,1.724006,890.5004
15.606781960,46.47056,-26.87173,1.961551,0.03559848,-0.1765577,-2.127656,25.43586,20.33061,-12.21914,890.5022
15.626605988,-17.98463,34.92726,0.06482819,-0.1919592,-0.5870469,-1.791801,25.43586,20.33061,-12.21914,890.5022
15.646429539,160.4348,66.68098,-13.57934,-0.1800325,0.369232,-2.028192,25.43586,20.33061,-12.21914,890.5039
15.666253567,101.709,80.87884,-8.5622,0.166846,-0.05614679,-0.7229908,23.18903,27.38678,-8.877474,890.5039
15.686078072,-93.9608,54.13266,-3.483878,-0.948575,-0.3944301,-1.383549,23.18903,27.38678,-8.877474,890.5021
15.705901623,80.28618,74.86979,-5.074678,-0.9139856,0.4876467,-1.198565,23.57033,28.11965,-8.088787,890.5021
15.728203297,-80.50928,4.35178,4.164196,0.787626,-1.192683,-1.776647,23.57033,28.11965,-8.088787,890.5056
15.748027325,-23.71399,114.6945,-5.992447,0.7460766,0.1959336,-1.93307,23.57033,28.11965,-8.088787,890.5056
15.767847061,-141.4148,-133.7386,13.77018,0.9564823,0.07971793,1.474594,36.33749,3.498291,-24.89406,890.5056
15.787670613,126.5569,0.4046567,-5.074678,-0.208866,-0.5834633,-1.730468,36.33749,3.498291,-24.89406,890.5056
15.807494641,115.2228,62.49821,-5.319416,-0.6955998,0.3060683,-1.441325,19.26235,21.94441,-7.021655,890.5092
15.827318192,-179.5274,146.4482,5.999734,-0.2482811,-0.03143583,-0.880066,19.26235,21.94441,-7.021655,890.5092
15.847142220,84.08498,26.38497,-6.849031,-0.06640772,0.3449756,-0.9572156,19.26235,21.94441,-7.021655,890.5076
15.866965771,10.78667,23.73392,-1.77071,-0.2986417,-0.4815561,-0.6212282,21.45454,18.61317,-8.68591,890.5076
15.886789799,-77.45779,108.8033,9.364887,0.144999,-1.052119,-1.813514,21.45454,18.61317,-8.68591,890.5076
15.906613350,146.3605,1930.077,-377.9336,14.71911,1.518119,-9.286219,8.872732,15.82195,14.95786,890.5076
15.926437855,-66.93321,1930.077,35.18478,-1.720904,-1.793784,-15.70147,8.872732,15.82195,14.95786,890.504
15.946261883,-389.6451,-154.8881,100.5299,1.489158,-2.381246,1.923743,8.872732,15.82195,14.95786,890.504
15.966081619,722.783,-139.8066,-25.6327,2.586995,1.065737,5.770308,4.258127,-13.23116,63.69445,890.5059
15.985905170,99.15567,-197.1282,-4.768755,0.3049096,-0.02584019,0.6721076,4.258127,-13.23116,63.69445,890.5059
16.008206844,140.818,-0.6557645,-18.9024,1.841126,0.6104832,1.29617,13.33513,4.313736,12.52412,890.5028
16.028030872,54.5041,246.4813,55.86518,0.9623904,0.8958973,1.651523,13.33513,4.313736,12.52412,890.5028
16.047854424,-150.5693,91.83652,-25.02086,0.5570992,-0.8578383,-1.734551,13.33513,4.313736,12.52412,890.5028
16.067678452,187.3378,42.64476,-4.70757,1.753657,0.3285071,3.142019,-0.8732662,19.7606,-1.543717,890.5028
16.087502003,-93.52487,113.9875,5.081965,0.7630667,0.9010896,0.5199336,-0.8732662,19.7606,-1.543717,890.5028
16.107326031,-30.8134,-30.75994,-3.422694,2.609198,-1.14435,4.248578,-5.336752,23.85398,0.1515226,890.5045
16.127149582,-31.49843,-140.6313,13.15833,2.449134,0.279185,4.693401,-5.336752,23.85398,0.1515226,890.5045
16.146973610,-135.6231,-79.4804,8.753041,-0.2280168,1.471883,2.280465,-5.336752,23.85398,0.1515226,890.5029
16.166793823,451.3239,2.643323,-14.61948,1.359342,-0.4337143,2.681044,-10.76437,8.902615,-2.835283,890.5029
16.186617851,-118.186,183.6808,-4.095725,1.378193,0.4220578,1.276225,-10.76437,8.902615,-2.835283,890.5046
16.206441402,54.44183,-24.63307,-14.86421,-1.358281,-1.500605,3.024759,-6.624666,28.04249,8.195053,890.5046
16.226265431,-54.35355,205.3605,70.1212,2.275703,-4.50318,1.625648,-6.624666,28.04249,8.195053,890.5046
16.246088982,-424.5194,129.6582,-8.072723,0.744306,3.043087,2.165703,-6.624666,28.04249,8.195053,890.5046
16.265913010,-212.658,81.88035,2.451027,-1.67165,-0.7853831,-1.367398,-5.971233,32.02213,6.865648,890.5031
16.285736561,127.6156,-57.80068,-11.37669,-0.1986371,2.527212,3.36808,-5.971233,32.02213,6.865648,890.5031
16.308038235,-322.5121,162.9436,20.68404,0.4705956,0.06519514,0.008463667,-9.515562,27.37411,9.571285,890.5049
16.327862263,-116.6914,1141.594,-33.21959,6.320284,-8.359345,-14.53915,-9.515562,27.37411,9.571285,890.5049
16.347685814,-197.8987,1930.077,-120.5912,5.21354,-0.2381422,-15.70837,-9.515562,27.37411,9.571285,890.5031
16.367505550,25.60825,1775.55,-108.2319,-9.342693,5.730929,-10.05217,-22.89781,22.50281,45.28368,890.5031
16.387329578,142.0635,-114.8278,-1.954263,-2.152111,-0.2578756,-0.01938248,-22.89781,22.50281,45.28368,890.4962
16.407153130,141.2539,46.94536,-13.64052,-0.001171876,-0.06370788,-1.506031,6.752663,30.42496,10.50402,890.4962
16.426977635,-89.41469,50.12663,-1.281233,-0.08650774,0.529938,-0.1694828,6.752663,30.42496,10.50402,890.4998
16.446801663,10.47529,5.824587,-0.4858332,-0.2440193,0.1476001,0.05558303,6.752663,30.42496,10.50402,890.4998
16.466625214,21.80944,44.52996,-0.5470178,-0.228907,-0.002843711,-1.100399,29.11803,19.18328,-12.27096,890.5032
16.486448765,-47.37869,-33.52882,-0.1799102,-0.3377672,-0.232262,-1.492754,29.11803,19.18328,-12.27096,890.5032
16.506272793,-226.7323,-144.8141,17.68599,-0.5196246,0.2943713,-0.562044,22.43902,26.65862,-9.721252,890.5032
16.526096344,69.01431,92.48456,-3.23914,0.1269262,0.0891337,-1.666314,22.43902,26.65862,-9.721252,890.5032
16.545920372,-50.9284,-25.34001,1.777997,-0.0846632,0.2006165,-0.7339779,22.43902,26.65862,-9.721252,890.5017
16.565740109,81.03349,-26.16479,4.837227,0.4734476,0.4766744,-0.4556882,22.56759,27.81342,-4.701711,890.5017
16.588041783,113.5413,102.912,-9.051677,-0.5215816,-0.55628,-1.550656,22.56759,27.81342,-4.701711,890.5036
16.607865811,-148.2028,51.65834,3.858273,-1.531401,1.268068,-0.6308647,40.36189,17.66162,-32.94721,890.5036
16.627689362,75.42869,135.844,-7.644431,0.5064639,-0.6065139,-2.840218,40.36189,17.66162,-32.94721,890.5053
16.647513390,99.40477,-2.59987,-6.29837,-0.08462159,-0.2268275,-0.589713,17.08933,20.52595,-6.517671,890.5053
16.667336941,-67.55597,-22.63005,2.145104,0.162748,0.5045135,-0.7523566,17.08933,20.52595,-6.517671,890.5037
16.687160969,-121.8602,15.9575,0.7990434,-0.4066881,-0.8465428,-1.77399,17.08933,20.52595,-6.517671,890.5037
16.706984520,-58.15236,-11.79019,6.856318,-0.1065409,-0.387618,-0.2333362,23.15626,21.82112,-12.20106,890.5037
16.726809025,29.90526,-35.8264,0.003643602,0.07558245,-0.02008179,-0.07535872,23.15626,21.82112,-12.20106,890.5037
16.746632576,47.65379,243.7124,-17.43397,0.9997894,0.01899224,-3.350101,11.86272,20.02673,5.422843,890.5037
16.766452313,0.573478,1930.077,-118.6333,6.197053,-0.5483153,-15.48117,11.86272,20.02673,5.422843,890.5037
16.786276341,237.0337,1930.077,108.5451,-5.173581,-3.272894,-15.69306,11.86272,20.02673,5.422843,890.4951
16.806099892,125,264.5084,1.104966,-1.175674,-0.4532237,2.822905,10.18667,-12.95555,63.57293,890.4951
16.825923920,472.6221,136.8455,-37.38015,-0.4994726,0.6446515,-0.7776846,10.18667,-12.95555,63.57293,890.4951
16.845747471,150.7821,-43.19043,-24.53138,0.05407284,-2.128216,0.0723217,21.79946,-9.997621,18.59116,890.4951
16.868049622,236.1619,175.6098,-28.99786,0.3040949,3.70902,0.8252111,21.79946,-9.997621,18.59116,890.4951
16.887873173,-426.8859,-122.2507,8.569487,2.128208,-1.314532,1.641336,21.79946,-9.997621,18.59116,890.4951
16.907696724,-47.81462,-92.32328,35.55189,-0.1944837,-1.797519,0.1398408,0.6026516,20.10824,-1.143182,890.4968
16.927520752,129.8575,10.59648,0.1260128,0.1447114,-3.011237,-0.02914932,0.6026516,20.10824,-1.143182,890.4968
16.947344303,-258.2437,199.0569,-29.85444,-0.5895408,0.05285095,-3.085455,-5.291882,23.14177,1.470814,890.4935
16.967164516,150.4707,-66.0484,29.12751,2.183266,-2.821907,2.403054,-5.291882,23.14177,1.470814,890.4935
16.986988068,30.15436,-196.2446,-5.074678,2.607717,2.348143,2.845907,-5.291882,23.14177,1.470814,890.4935
17.006811619,-229.8461,-146.6993,6.978688,-2.784813,-3.03266,-2.122219,-9.41707,17.30676,-3.884197,890.4935
17.026636124,48.83703,93.01477,16.89059,-0.6694846,-1.767,0.4900252,-9.41707,17.30676,-3.884197,890.4935
17.046460152,-91.1584,89.06765,-11.80498,-0.07733785,-0.04227129,-1.192681,-6.922211,19.96534,7.536524,890.4935
17.066283703,134.4036,-79.9517,29.92291,-1.512408,-0.7258662,1.042846,-6.922211,19.96534,7.536524,890.4884
17.086107731,-138.986,-7.312852,-4.70757,0.980472,1.537207,2.01284,-6.922211,19.96534,7.536524,890.4884
17.105931282,-586.6849,1.995288,-0.057541,-1.641828,0.6253141,-1.572837,-5.991726,32.74511,6.417279,890.4884
17.125755310,-16.5523,-3.719203,16.03401,-0.7216961,-0.9391705,-2.174528,-5.991726,32.74511,6.417279,890.4884
17.148056984,-244.4808,-124.784,13.83136,0.1848973,0.7114328,1.12901,-9.552668,29.5538,9.097101,890.4901
17.167876720,-69.42424,358.7681,-2.688479,-0.04561828,-2.155343,-2.089536,-9.552668,29.5538,9.097101,890.4901
17.187700272,-82.81348,1930.077,-435.1412,13.19345,0.3474192,-13.63911,-9.552668,29.5538,9.097101,890.4884
17.207524300,4.683665,1930.077,90.0062,-5.367888,-0.6305584,-15.69291,-21.50136,23.51948,40.94226,890.4884
17.227347851,-498.4405,-218.808,102.1819,-0.1718869,-1.279053,-1.070946,-21.50136,23.51948,40.94226,890.4884
17.247171879,254.2218,-101.8671,2.940504,1.777159,-0.4186383,1.561913,-15.8176,22.81543,20.85872,890.4816
17.266995430,131.7881,-34.11794,-9.112862,-0.10959,0.2469833,-2.51054,-15.8176,22.81543,20.85872,890.4816
17.286819458,-228.9119,16.01641,9.058964,-0.0399665,-0.3341597,0.06578793,-15.8176,22.81543,20.85872,890.4833
17.306643009,32.52083,13.89557,-2.994402,0.2731859,-0.03983362,-0.8592403,32.0668,15.85107,-13.14074,890.4833
17.326467037,23.98908,-51.08468,3.491166,0.3159804,-0.18465,-1.87881,32.0668,15.85107,-13.14074,890.485
17.346290588,10.91122,15.54511,-2.44374,-0.05126269,-0.579029,-2.43142,23.54824,25.91382,-9.729697,890.485
17.366111279,-90.47337,-0.1255538,7.651718,0.3336414,-0.8168231,-1.281036,23.54824,25.91382,-9.729697,890.4868
17.385934830,67.27059,56.60698,-1.64834,-0.2581863,-0.6727985,-1.861059,23.54824,25.91382,-9.729697,890.4868
17.405758858,-72.03981,-37.00464,-0.6693869,0.6816893,-0.1064826,-0.01352283,23.67681,27.06862,-4.710156,890.4852
17.428060532,87.82152,-17.21012,-7.889169,-0.2459826,0.07208512,-1.095114,23.67681,27.06862,-4.710156,890.4852
17.447884083,-81.25659,-124.4894,12.97478,0.6193734,-0.3451616,0.4349131,33.72583,23.66395,-31.61705,890.4852
17.467708111,-199.331,-59.92152,16.27875,-0.115926,0.008995452,-0.02177029,33.72583,23.66395,-31.61705,890.4852
17.487531662,56.31009,51.36378,-10.82603,-0.947027,-0.02685174,-1.080536,9.351392,15.89683,-7.154027,890.487
17.507355690,107.3138,80.93775,-5.686524,0.2716206,-0.2716916,-1.900231,9.351392,15.89683,-7.154027,890.487
17.527179241,-96.82548,46.53298,-2.137817,0.01231463,0.383824,-1.479856,9.351392,15.89683,-7.154027,890.487
17.547003269,-98.8183,13.18862,5.510257,-0.01806008,-0.2364372,-0.8465381,20.90126,23.29457,-13.49056,890.487
17.566823006,74.6191,49.89098,-9.908261,0.2081958,-0.5151795,-0.5074604,20.90126,23.29457,-13.49056,890.4872
17.586646557,32.14718,46.12059,9.181333,0.7143215,0.6916627,-3.033105,12.82474,20.68101,0.722929,890.4872
17.606470585,-63.50806,755.9547,-26.61166,5.389648,-0.1071249,-6.078269,12.82474,20.68101,0.722929,890.489
17.626294136,-132.8207,1930.077,-101.9299,8.357994,0.2407115,-15.7244,12.82474,20.68101,0.722929,890.489
17.646118164,275.0218,1927.308,-109.5168,-5.55615,2.543703,-11.88927,1.783125,-0.7524364,58.84992,890.4855
17.665941715,573.8822,-267.4695,-7.216139,-1.092946,-0.7003072,2.599633,1.783125,-0.7524364,58.84992,890.4855
17.685765743,118.1497,7.70978,-17.18923,-1.816689,-0.3667476,-1.141159,4.806658,-9.205768,32.54533,890.4872
17.708067417,258.1451,-116.1828,-29.05904,-0.3752249,1.395163,2.628487,4.806658,-9.205768,32.54533,890.4872
17.727890968,168.7797,411.0822,101.7536,1.710265,-4.696741,-0.5063531,4.806658,-9.205768,32.54533,890.4858
17.747715473,-165.7022,24.08739,-28.93667,0.6037557,1.343801,1.54639,2.226311,16.86097,3.116624,890.4858
17.767535210,257.6469,-115.8293,0.1260128,0.3417904,-0.0680102,3.654435,2.226311,16.86097,3.116624,890.4876
17.787359238,122.4467,61.79126,-12.11091,-2.433142,1.704188,-0.1974477,-5.271116,21.32087,1.503084,890.4876
17.807182789,-237.07,120.9392,4.470119,0.08711673,-0.1824524,0.8723453,-5.271116,21.32087,1.503084,890.4912
17.827006817,191.1367,62.91059,-43.25387,-1.08,2.412517,2.977477,-5.271116,21.32087,1.503084,890.4912
17.846830368,-129.7692,-23.39591,24.84459,-0.6067246,0.7652956,-0.5811356,-7.956171,22.03993,-2.316937,890.4929
17.866654396,142.3749,-283.4937,39.896,-0.543813,-2.396393,2.632861,-7.956171,22.03993,-2.316937,890.4929
17.886477947,-13.00259,-151.9425,16.21756,-1.432418,1.149304,0.06809118,-6.480574,7.121368,5.205821,890.4914
17.906301975,-157.3573,-44.83998,-5.50297,0.06672865,-0.3273531,-1.276732,-6.480574,7.121368,5.205821,890.4914
17.926125526,-5.218147,-176.3322,-68.95139,2.960993,0.581153,3.037156,-6.480574,7.121368,5.205821,890.4931
17.945949554,-373.5157,-104.2236,8.569487,2.508247,1.936564,5.29376,-6.346783,33.85389,7.275956,890.4931
17.965769291,-432.6775,-120.2477,12.4853,-0.6468025,-0.9027263,-0.24343,-6.346783,33.85389,7.275956,890.4967
17.988070965,35.82144,-109.938,14.62676,1.06113,-2.408056,1.97981,-9.54719,33.21635,10.71219,890.4967
18.007894516,-264.5958,64.3834,11.87346,0.304267,1.399556,1.26118,-9.54719,33.21635,10.71219,890.4951
18.027718544,153.4599,422.0399,1.227336,1.23201,-0.5183552,2.480238,-9.54719,33.21635,10.71219,890.4951
18.047542095,-66.43501,1930.077,-41.5407,0.3662136,-1.967612,-14.93287,-18.24495,18.89009,24.40102,890.4968
18.067366123,274.4613,1930.077,101.5701,-3.046142,-2.425693,-15.69823,-18.24495,18.89009,24.40102,890.4968
18.087189674,-232.5239,222.7985,24.90577,0.4398894,-2.527369,2.013843,-16.50513,8.67886,30.09091,890.4951
18.107013702,256.2146,81.82143,-10.21418,0.7959515,0.5532162,-0.631722,-16.50513,8.67886,30.09091,890.4951
18.126837254,-6.214556,-18.80075,0.3095666,0.216281,0.7788597,-0.8588699,-16.50513,8.67886,30.09091,890.4951
18.146661282,-92.83984,14.5436,6.428026,-0.7928138,-0.7209669,-0.4586373,34.12156,10.34165,-9.658146,890.4951
18.166481018,59.05022,14.48469,4.592488,-0.4398267,-0.4376614,-2.362564,34.12156,10.34165,-9.658146,890.4953
18.186305523,65.7137,26.62062,-4.462832,-0.1460181,-0.4731004,-2.208078,24.33239,23.64004,-11.0117,890.4953
18.206129074,72.0658,67.68249,-12.60038,-0.2813093,0.2465964,-2.363609,24.33239,23.64004,-11.0117,890.4988
18.225953102,77.48378,77.10845,-2.688479,-0.1243436,-0.1331811,-0.4761565,24.33239,23.64004,-11.0117,890.4988
18.245776653,-30.62657,50.18554,-8.378646,-0.9808304,0.07369225,-1.247613,24.36959,27.7436,-8.097755,890.4973
18.268078327,114.8491,76.4015,-6.543108,-0.5716684,0.3818758,-2.021544,24.36959,27.7436,-8.097755,890.4973
18.287902355,-38.66012,-58.21307,1.472074,0.268439,-0.7175796,-1.342689,30.31424,28.25276,-18.43389,890.5007
18.307725906,-109.4051,132.0736,5.326704,0.3624187,-0.2782675,-0.5629562,30.31424,28.25276,-18.43389,890.5007
18.327549934,-126.095,-108.642,7.529349,0.3333463,0.309718,0.5249306,30.31424,28.25276,-18.43389,890.5043
18.347373486,115.9078,-1.892922,-18.53529,-0.1631945,-0.5774582,-1.241649,3.847511,-0.9513569,-11.41268,890.5043
18.367193222,119.0216,55.42873,-13.3346,-0.3285748,-0.3984759,-2.377677,3.847511,-0.9513569,-11.41268,890.5043
18.387017250,-199.2065,84.00119,9.915548,-0.05171319,0.09631404,-1.617059,19.91245,22.99448,-9.60581,890.5043
18.406840801,11.7208,27.03301,-1.831894,0.782114,-0.7465713,-0.8424907,19.91245,22.99448,-9.60581,890.5043
18.426664829,107.812,69.39095,-12.23328,-0.09836368,0.2224132,-1.186963,19.91245,22.99448,-9.60581,890.5079
18.446488381,-158.8519,91.95435,16.27875,1.201558,0.214484,-1.425568,12.03242,17.37208,-2.626226,890.5079
18.466312409,364.4495,1930.077,-395.0041,16.09764,2.349209,0.2216631,12.03242,17.37208,-2.626226,890.5062
18.486135960,-156.2986,1930.077,25.63999,1.682953,-1.116747,-15.70954,5.02767,9.878986,34.751,890.5062
18.505959988,-542.0956,355.0566,12.24056,-8.800441,-0.8878522,-12.74991,5.02767,9.878986,34.751,890.5028
18.525783539,677.5087,-302.758,-22.02281,1.991567,0.3636357,5.439555,5.02767,9.878986,34.751,890.5028
18.548085213,107.5629,-140.6313,-7.7668,0.5598468,0.437897,-1.778515,-6.689476,-15.74128,54.18048,890.5028
18.567904949,464.0281,-296.2187,11.56753,2.754076,3.664972,5.872118,-6.689476,-15.74128,54.18048,890.5028
18.587728977,-197.961,56.60698,-69.62442,1.756994,-1.367831,-0.2177204,5.782969,14.63877,9.063211,890.5045
18.607552529,-240.9311,109.8048,-16.5162,-0.1116677,-0.8442382,-0.657469,5.782969,14.63877,9.063211,890.5045
18.627376557,-251.3311,19.49224,25.08933,0.7777225,2.184943,0.2915816,-4.18185,19.10321,0.2140727,890.5012
18.647200108,-63.00986,2.054201,-11.56025,0.0157808,0.518118,-1.236158,-4.18185,19.10321,0.2140727,890.5012
18.667024136,-330.857,-243.7868,15.48335,-0.2108058,-0.4122172,1.08524,-4.18185,19.10321,0.2140727,890.5012
18.686847687,74.80593,117.3455,-35.36105,-2.86229,1.082467,-4.495566,-6.818964,23.13755,-0.6158104,890.5012
18.706671715,-253.573,20.67048,32.00319,1.08499,0.1290009,0.9944548,-6.818964,23.13755,-0.6158104,890.5012
18.726495266,222.5858,-173.3866,-3.912171,1.432614,1.354451,2.32886,-7.261076,-1.367523,0.2684641,890.5012
18.746319771,54.37955,-227.2913,10.71095,0.3511813,2.522206,2.194059,-7.261076,-1.367523,0.2684641,890.5012
18.766139507,-54.78948,-39.00766,8.508303,0.5477723,-0.5498803,-0.1428572,-7.261076,-1.367523,0.2684641,890.5012
18.785963535,-322.4498,-8.314362,13.95373,-1.65105,2.318174,-2.014829,-6.299227,31.67881,8.123394,890.4996
18.805787087,-419.5996,272.5794,8.385933,1.254976,1.315787,3.308092,-6.299227,31.67881,8.123394,890.4996
18.825610638,-334.0331,-37.53485,22.39721,0.7129903,-1.435542,0.1218356,-7.050745,34.30509,8.526834,890.5014
18.847912789,212.8708,-113.5906,-18.41292,-0.1400217,-0.2787428,1.523682,-7.050745,34.30509,8.526834,890.5014
18.867736340,-454.8476,107.2715,26.86368,2.006868,-1.01466,1.570656,-7.050745,34.30509,8.526834,890.5031
18.887560368,-13.999,572.7375,-38.3591,1.377596,1.896942,-3.822731,-8.692389,23.68141,11.3023,890.5031
18.907383919,77.73288,1929.9,-236.9643,8.056742,2.385814,-15.72529,-8.692389,23.68141,11.3023,890.5015
18.927207947,387.9897,1930.077,-64.05663,-7.825608,-0.7592704,-15.635,-24.16569,15.06428,36.47714,890.5015
18.947031498,72.93767,170.131,13.52544,-2.48916,-0.6807624,-2.116887,-24.16569,15.06428,36.47714,890.4998
18.966851234,156.4492,46.12059,0.9214125,0.2694368,-0.3351036,-1.912658,-24.16569,15.06428,36.47714,890.4998
18.986675262,-127.4028,-0.773589,4.959596,-0.03873431,0.4330266,-0.1513677,28.05066,10.17068,-1.50458,890.4998
19.006498814,19.13159,-50.55447,1.104966,0.3077237,-0.02183747,-0.4221173,28.05066,10.17068,-1.50458,890.4998
19.026322842,56.18554,-44.9578,-1.831894,0.5220534,-0.3111937,-1.58235,25.8189,21.06425,-11.36825,890.5
19.046146393,3.438153,74.98761,-8.195092,-0.4321503,0.9102592,-0.8871002,25.8189,21.06425,-11.36825,890.5
19.065969944,68.64065,94.01628,-8.317461,-0.9050307,1.855833,-0.2278391,25.8189,21.06425,-11.36825,890.5036
19.085793972,47.96517,105.7398,-2.994402,-0.2105414,-0.3479283,-1.523182,23.55814,28.11427,-8.524248,890.5036
19.108095646,-102.6171,-17.44577,8.202379,0.1917451,-0.4924277,-0.9202148,23.55814,28.11427,-8.524248,890.5053
19.127919674,107.2515,-53.79464,0.1260128,-0.009168332,0.8699079,-0.9426567,22.87295,28.14675,-6.768169,890.5053
19.147743225,-104.5476,62.20364,1.349705,-0.08850455,-1.622892,-1.655738,22.87295,28.14675,-6.768169,890.5037
19.167562962,23.98908,143.5615,-3.055586,0.7476435,0.3682309,-3.195425,22.87295,28.14675,-6.768169,890.5037
19.187386990,-52.92122,18.13725,2.022735,1.082314,-0.2352215,-0.2107472,38.08137,7.151865,-26.73711,890.5054
19.207210541,145.9246,3.055709,-9.174046,-0.3013438,-0.7149291,-2.279,38.08137,7.151865,-26.73711,890.5054
19.227034569,0.448927,-3.012256,5.265519,-1.002659,0.4109344,-1.032649,18.5406,21.96075,-6.571959,890.5054
19.246858120,-277.8605,112.3969,0.06482819,-1.037435,0.5272676,-1.181052,18.5406,21.96075,-6.571959,890.5054
19.266682148,111.7353,50.89249,-9.296415,-1.07003,0.2627858,-0.906986,18.5406,21.96075,-6.571959,890.5039
19.286505699,45.5987,50.42119,8.447118,0.1207617,-0.234123,-1.474179,22.16826,18.22727,-9.564613,890.5039
19.306329727,-5.467249,143.4437,17.07414,-0.7998799,-1.421641,-2.497922,22.16826,18.22727,-9.564613,890.5056
19.326153278,-40.71521,1919.649,-252.444,9.531316,1.816947,-15.72853,10.27311,16.50226,12.80139,890.5056
19.345976830,6.98786,1930.077,94.22793,-3.278184,1.032967,-15.6987,10.27311,16.50226,12.80139,890.5039
19.365797043,-271.3839,-81.95472,80.27784,1.755153,-3.262902,6.002878,10.27311,16.50226,12.80139,890.5039
19.388098717,406.1118,17.37139,-32.66893,1.009186,2.596091,2.582318,6.78849,-15.11654,61.56181,890.5039
19.407922268,142.3749,-89.43658,-6.726662,1.687773,-0.5584167,2.39731,6.78849,-15.11654,61.56181,890.5039
19.427746296,193.7522,46.88645,-8.623384,0.8901325,0.3043917,0.3426331,14.13712,1.404716,13.80569,890.5026
19.447569847,148.1665,13.71883,-53.16577,-4.6448,3.919097,-1.792412,14.13712,1.404716,13.80569,890.5026
19.467393875,-332.7875,-25.39893,19.6439,0.3082187,-0.6374754,0.5889558,-0.8857269,20.85313,-1.563079,890.5026
19.487217426,441.858,-129.6737,-23.91953,0.271289,0.3210307,2.066552,-0.8857269,20.85313,-1.563079,890.5026
19.507041454,-201.6352,-24.75089,1.166151,-2.132571,-0.1485456,-1.876037,-0.8857269,20.85313,-1.563079,890.5026
19.526865006,9.416606,-15.38384,1.716812,-3.128723,-6.602197,-0.2106461,-4.961475,23.12015,0.1573129,890.5043
19.546689034,185.4696,68.86073,-23.55243,-2.760568,1.29783,-2.707765,-4.961475,23.12015,0.1573129,890.5043
19.566508770,-258.3683,-26.34152,29.24988,-0.1742709,-0.4388305,0.7997572,-10.43478,12.17475,-2.900488,890.5043
19.586332321,577.3696,73.63263,13.03596,0.9072009,-1.209151,1.456888,-10.43478,12.17475,-2.900488,890.5043
19.606156349,-211.4748,-50.31882,-1.403602,1.197794,-0.1689567,0.7385651,-10.43478,12.17475,-2.900488,890.5061
19.625979901,-37.53916,-7.25394,15.6669,0.4234844,0.3570833,1.203267,-6.962564,25.49872,8.247349,890.5061
19.645803929,45.97235,97.60992,-3.545063,-2.927311,2.97903,-1.952695,-6.962564,25.49872,8.247349,890.5045
19.665627480,-509.3387,53.72028,22.58076,0.7876137,-0.2991055,3.835922,-7.072145,32.03857,6.887002,890.5045
19.687929154,-162.5885,48.24143,-10.03063,-0.6728119,0.584913,1.616603,-7.072145,32.03857,6.887002,890.5045
19.707753182,169.4025,-11.67236,5.387888,1.219993,2.029207,3.940071,-7.072145,32.03857,6.887002,890.5045
19.727576733,-501.3674,136.5509,17.50244,-0.4769266,-0.237166,-0.837337,-10.29049,28.83102,8.688784,890.5063
19.747400761,-196.155,999.4981,-58.12172,6.247478,-5.155416,-14.40919,-10.29049,28.83102,8.688784,890.5063
19.767220497,-146.5214,1930.077,-93.5476,7.454956,0.2613785,-15.69167,-19.05603,19.93398,48.1803,890.5046
19.787044048,-32.74394,1742.794,-80.88239,-9.900524,6.8017,-10.12829,-19.05603,19.93398,48.1803,890.5046
19.806868553,171.2085,-84.07556,0.1871974,-1.934085,0.527195,-0.1958614,-19.05603,19.93398,48.1803,890.5029
19.826692581,169.8384,56.19459,-11.56025,-0.0821381,-0.1177559,-1.931544,6.554199,25.01463,14.40268,890.5029
19.846516133,-74.96676,59.25803,0.3095666,0.1060969,0.5984312,-0.4879172,6.554199,25.01463,14.40268,890.4996
19.866339684,-9.328334,-14.20559,0.8602279,0.1355911,-0.1776674,-0.1305212,31.29132,19.50382,-13.19104,890.4996
19.886163712,65.4646,47.29884,-1.587156,-0.3493436,0.3057903,-0.885199,31.29132,19.50382,-13.19104,890.5031
19.905987263,-26.08046,30.56775,1.28852,-0.5706308,0.3663659,-0.9550993,31.29132,19.50382,-13.19104,890.5031
19.925811291,-223.9921,-115.7115,11.93464,-0.7502713,-0.1478908,-0.4823681,23.18515,26.65304,-9.300027,890.505
19.945634842,67.83107,91.36523,-7.399693,0.04894038,0.3355235,-1.380321,23.18515,26.65304,-9.300027,890.505
19.967936993,-54.29128,-23.21917,-1.831894,0.04725842,0.2663482,-0.3248683,22.9714,26.72616,-3.818544,890.5051
19.987756729,62.47537,7.474131,1.655628,0.1272748,0.2155847,-0.9772589,22.9714,26.72616,-3.818544,890.5051
20.007580280,54.37955,29.80189,-2.627294,-0.7112392,0.0782232,-1.079196,22.9714,26.72616,-3.818544,890.5104
20.027404308,-68.30328,72.5722,5.14315,-1.461962,1.262398,-0.313054,37.3661,20.97307,-33.75707,890.5104
20.047227860,41.92444,132.1325,-6.543108,0.4196804,-1.041578,-2.285838,37.3661,20.97307,-33.75707,890.5089
20.067051888,59.79752,-24.92763,-3.361509,0.2453708,-0.2868768,-0.5933309,13.73373,19.84782,-6.439515,890.5089
20.086875439,-40.27928,-26.34152,0.6766742,0.4942219,0.6642065,-1.303391,13.73373,19.84782,-6.439515,890.5124
20.106698990,-114.6363,14.83817,-4.156909,-0.2553583,-1.095008,-1.64593,13.73373,19.84782,-6.439515,890.5124
20.126523018,-78.95239,-26.16479,13.95373,0.4124466,-0.4888281,-0.1195767,22.02682,22.19097,-13.05709,890.5159
20.146346569,48.152,-33.05752,6.183288,0.008840292,0.01103355,-0.7087582,22.02682,22.19097,-13.05709,890.5159
20.166170597,85.39278,145.9769,6.978688,0.8543791,-0.6615509,-4.838371,12.15415,20.35392,2.858715,890.5143
20.185990334,-28.32238,1930.077,3.246427,7.224942,-2.541251,-15.52798,12.15415,20.35392,2.858715,890.5143
20.205813885,172.0803,1930.077,138.7703,-3.858769,-3.641431,-15.69599,12.15415,20.35392,2.858715,890.509
20.225637913,-11.57025,189.5131,4.714858,-0.7427297,-2.253344,3.188289,6.036285,-7.366374,63.92778,890.509
20.247939587,310.3943,64.3834,-35.48342,-0.2221434,1.578297,-0.6330225,6.036285,-7.366374,63.92778,890.5107
20.267763615,406.2364,89.00874,-5.441785,1.198878,-0.9254292,2.303252,19.76117,-11.72262,23.76725,890.5107
20.287587166,-54.72721,93.89845,-37.68607,1.51719,-1.887646,-1.743172,19.76117,-11.72262,23.76725,890.5107
20.307411194,-134.0663,-36.12096,6.428026,-0.2284697,0.3966635,1.841658,19.76117,-11.72262,23.76725,890.5107
20.327234745,-56.47092,116.344,23.92682,-0.2862441,-0.4950201,0.6539771,1.008598,19.75395,0.100328,890.5109
20.347058773,416.5119,62.20364,-6.359554,-2.305674,-0.5230712,0.2348509,1.008598,19.75395,0.100328,890.5109
20.366882324,-231.1538,20.84722,8.997779,1.258534,-0.3957005,1.53533,-5.299917,22.77221,1.041807,890.5128
20.386702061,-139.1729,72.5722,14.0761,-0.471838,-1.033785,4.012877,-5.299917,22.77221,1.041807,890.5128
20.406526089,62.84903,-56.09222,1.043782,1.471134,0.6976422,1.87308,-5.299917,22.77221,1.041807,890.5112
20.426349640,-309.6833,-42.01219,9.242517,1.245914,0.3737363,0.3274248,-8.341352,20.57332,-3.528177,890.5112
20.446173668,298.7488,282.4767,-31.38406,-1.174183,0.6171399,-0.04536269,-8.341352,20.57332,-3.528177,890.5129
20.465997219,-264.5335,-54.32486,-1.831894,-0.00091614,0.4799175,0.381992,-6.879444,14.06701,6.769944,890.5129
20.485820770,310.0829,-249.5013,14.32084,2.206167,-0.4872901,3.74363,-6.879444,14.06701,6.769944,890.5129
20.505644798,-35.11041,225.9209,-53.53288,-4.113616,0.630522,-4.359417,-6.879444,14.06701,6.769944,890.5129
20.527946472,-576.2849,68.80182,37.63217,1.354326,-0.839843,2.819089,-7.084604,33.13111,6.867639,890.5096
20.547770500,-94.77039,-109.7024,1.900366,1.37416,-0.6623702,2.066687,-7.084604,33.13111,6.867639,890.5096
20.567594051,-8.26965,-103.8112,15.11624,0.7639159,0.5833799,1.134415,-9.549059,31.38546,9.935751,890.5114
20.587413311,-244.4185,244.5372,13.70899,0.7990614,-1.221333,0.2661926,-9.549059,31.38546,9.935751,890.5114
20.607236862,494.7299,1908.043,-346.8518,14.64243,1.330408,0.5485604,-17.59659,19.37484,34.58967,890.5131
20.627060890,-184.634,1930.077,3.185243,0.3683399,-1.435257,-15.7064,-17.59659,19.37484,34.58967,890.5131
20.646885395,-567.3172,405.8979,-1.831894,-9.563978,-0.751134,-13.96787,-17.59659,19.37484,34.58967,890.5131
20.666708470,173.9486,-242.1372,2.87932,1.432501,-0.795868,1.706002,-10.20222,25.74336,23.68407,890.5062
20.686532021,111.7976,-22.27657,-2.260186,-0.07881334,-0.1615686,-2.097706,-10.20222,25.74336,23.68407,890.5062
20.706356526,-228.2892,-53.79464,4.837227,-0.4955947,-0.4709393,-0.4000173,33.9991,16.93682,-11.45503,890.5081
20.726179600,15.95554,-1.892922,4.959596,0.05650295,0.09337119,0.06017222,33.9991,16.93682,-11.45503,890.5081
20.746003628,13.58907,12.42276,2.512212,-0.4553227,0.1826897,-1.666433,33.9991,16.93682,-11.45503,890.5084
20.765827179,-68.36555,-9.846081,-1.220048,0.05859242,-0.4624052,-0.8883106,24.71543,24.37367,-10.16081,890.5084
20.785646916,-181.2088,-91.91089,8.753041,0.3704636,-0.4497635,-0.7065854,24.71543,24.37367,-10.16081,890.5103
20.807948590,67.14604,43.88192,-5.380601,-0.1324064,-0.3189766,-1.977819,24.00896,27.04777,-5.961447,890.5103
20.827772618,-77.64461,-10.96541,0.3707512,0.02331205,-0.1676555,-0.5598109,24.00896,27.04777,-5.961447,890.5103
20.847596169,142.3749,14.89708,-9.663523,-0.1307514,0.4420669,-1.240586,24.00896,27.04777,-5.961447,890.5103
20.867420197,-15.36906,-33.05752,2.818135,-0.6915899,-0.1904781,-0.9723749,32.00271,26.33068,-24.40925,890.512
20.887243748,-187.8101,81.52687,0.7990434,-1.683491,0.8671335,-1.396587,32.00271,26.33068,-24.40925,890.512
20.907067776,30.77712,125.9467,-4.340463,-0.8755189,-0.1052341,-1.597858,3.83099,6.788619,-8.998739,890.5104
20.926891327,139.0743,26.79736,-12.96749,0.001552634,0.2413125,-0.4506981,3.83099,6.788619,-8.998739,890.5104
20.946715355,-20.03973,-32.52731,-3.789801,0.02163855,0.4387624,-0.547534,3.83099,6.788619,-8.998739,890.5121
20.966538906,-151.192,7.591956,8.263564,-0.4158708,-0.4320859,-1.698429,20.24674,23.7066,-10.49676,890.5121
20.986358643,-32.12119,35.16291,1.043782,-0.02289158,-0.6653606,-0.9881467,20.24674,23.7066,-10.49676,890.5089
21.006182671,95.10776,-28.69801,-8.439831,-0.1851606,0.2028889,-0.1016384,10.92293,19.21479,-2.201682,890.5089
21.026006222,139.5102,238.1746,-6.29837,1.247161,-0.6273926,-3.204427,10.92293,19.21479,-2.201682,890.5106
21.045830250,18.75794,1930.077,-45.76244,6.621802,-0.6355641,-15.43041,10.92293,19.21479,-2.201682,890.5106
21.065653801,248.617,1930.077,120.5373,-4.331664,-2.763552,-15.69516,4.096859,7.408427,39.85643,890.5071
21.087955475,295.9464,46.59189,1.166151,-2.427934,-0.5927566,0.4707577,4.096859,7.408427,39.85643,890.5071
21.107779503,277.5128,104.3259,-22.45111,0.1453257,1.5788,-0.05922792,-6.120811,-13.99513,48.97065,890.5037
21.127603054,264.4973,63.73536,-7.889169,1.045389,-0.9423526,0.6888626,-6.120811,-13.99513,48.97065,890.5037
21.147427082,9.229779,174.6672,-18.29055,0.763019,4.16648,2.476117,-6.120811,-13.99513,48.97065,890.5056
21.167250633,-140.8543,50.36227,8.936595,0.9434281,0.4088663,1.374922,4.190571,14.99964,6.97132,890.5056
21.187070370,1.071682,-4.838536,22.8255,-0.1892897,-0.8963054,-1.48955,4.190571,14.99964,6.97132,890.5073
21.206894398,195.6828,11.53908,41.97628,1.703512,-3.583911,2.92779,-4.895569,19.48911,1.092776,890.5073
21.226717949,-309.7456,27.44539,-20.43201,-1.860419,0.2203722,-2.571135,-4.895569,19.48911,1.092776,890.509
21.246541977,121.3258,120.9392,5.693811,-1.197477,-1.029309,2.668928,-4.895569,19.48911,1.092776,890.509
21.266365528,56.99512,-115.5936,5.877365,2.125804,1.048877,2.670698,-7.218616,23.86063,-1.492522,890.5057
21.286189556,-143.9058,-6.016782,6.917503,0.3644446,0.2001686,2.387215,-7.218616,23.86063,-1.492522,890.5057
21.306013107,229.1247,211.723,37.75454,-0.4362032,-1.189759,-1.166614,-7.230135,-2.08589,1.090086,890.5092
21.325837135,-143.7812,0.4046567,0.554305,1.053722,2.101032,3.489339,-7.230135,-2.08589,1.090086,890.5092
21.345660687,255.2182,-141.8685,15.17742,-1.817866,-2.954374,1.268795,-7.230135,-2.08589,1.090086,890.5059
21.367962360,-22.46848,-9.787169,-26.12218,-3.346878,1.524457,-4.932742,-6.678659,32.77682,8.111149,890.5059
21.387782097,-549.5687,58.66891,14.38202,0.02055539,0.1180997,1.044804,-6.678659,32.77682,8.111149,890.5076
21.407606125,-0.6720329,32.86533,-10.70366,0.3225044,-0.1710297,2.937163,-7.783995,34.25536,8.542147,890.5076
21.427429676,-40.27928,-84.84142,16.52348,1.384941,1.322505,2.195375,-7.783995,34.25536,8.542147,890.5043
21.447253704,-265.7168,220.1475,10.52739,0.395338,-0.1580444,1.511875,-7.124321,22.23967,14.28566,890.5043
21.467077255,466.5814,1826.627,-302.2483,13.53813,-0.8953494,-2.32337,-7.124321,22.23967,14.28566,890.5061
21.486901283,-195.7191,1930.077,12.73004,1.524746,-1.30324,-15.70912,-7.124321,22.23967,14.28566,890.5061
21.506724835,-581.6406,496.8585,-11.86617,-10.40004,0.1351176,-14.16493,-29.69868,21.78315,38.14629,890.5007
21.526548863,158.8156,-171.3836,7.468164,1.138374,-0.2638358,0.8402506,-29.69868,21.78315,38.14629,890.5007
21.546372414,132.5976,6.885008,-10.21418,-0.45926,0.08952986,-1.765523,19.48617,15.821,-1.437571,890.4992
21.566196442,-114.8231,31.39252,2.328658,-0.1752163,0.07013512,0.2695015,19.48617,15.821,-1.437571,890.4992
21.586016178,23.4286,-4.190501,7.101057,0.3726187,0.299589,-0.1747858,19.48617,15.821,-1.437571,890.5009
21.605839729,39.93163,-2.894431,-1.64834,-0.6628668,0.01754183,-1.001713,26.91566,21.41199,-11.39605,890.5009
21.625663757,-68.36555,-17.50468,-2.566109,0.1133314,-0.3315569,-1.685793,26.91566,21.41199,-11.39605,890.4976
21.647964478,-95.33086,-46.96082,11.01687,0.5475826,-0.6059812,-0.7265825,23.17269,27.74558,-9.319389,890.4976
21.667788506,43.54361,73.45589,-0.4246486,0.2157448,-0.3755544,-1.981959,23.17269,27.74558,-9.319389,890.4993
21.687612057,-48.126,18.66746,-3.055586,0.03348612,-0.2588148,-0.7815243,23.17269,27.74558,-9.319389,890.4993
21.707436085,162.1162,4.999815,-8.072723,0.03137047,1.438147,-0.8816216,23.58252,28.12503,-7.653327,890.5012
21.727259636,-68.86375,52.54203,3.124058,-1.043115,-0.2303685,-0.5693006,23.58252,28.12503,-7.653327,890.5012
21.747083664,-195.1586,19.90462,4.041827,-2.005192,0.4489658,-1.224765,37.34743,7.162823,-26.72287,890.4978
21.766907215,8.295646,59.14021,-7.583246,-0.1631698,-0.09959552,-1.319845,37.34743,7.162823,-26.72287,890.4978
21.786726952,211.1271,-23.21917,-17.00567,0.4590631,-0.07807624,-0.5776042,37.34743,7.162823,-26.72287,890.4978
21.806550980,-77.27096,-48.25689,8.569487,0.04683378,0.3501941,-0.5159609,18.89926,22.68363,-6.591985,890.4996
21.826374531,-228.2269,54.7807,9.426071,-0.9304836,-0.2968605,-1.98077,18.89926,22.68363,-6.591985,890.4996
21.846198559,75.67779,2.054201,-8.868123,-0.5361375,-0.2724914,-0.9238652,22.51474,18.94477,-10.0201,890.4996
21.866022110,35.07413,34.39705,9.731995,-0.2582465,-0.1815225,-0.7727323,22.51474,18.94477,-10.0201,890.4996
21.885846138,117.7761,144.3274,10.40502,0.7773739,-0.7738679,-3.662535,22.51474,18.94477,-10.0201,890.498
21.905669689,-10.57384,1930.077,-28.87549,6.884913,-2.226882,-15.49376,9.881492,17.5949,12.35368,890.498
21.927971363,286.7919,1930.077,76.8515,-3.219698,-1.569023,-15.69808,9.881492,17.5949,12.35368,890.498
21.947795391,176.8755,227.2169,-20.61557,-0.6485868,-0.5546485,0.5475648,3.63843,-12.80375,67.93243,890.498
21.967618942,313.0722,83.11751,-23.85835,-0.1825468,0.7326705,0.5829839,3.63843,-12.80375,67.93243,890.4962
21.987438679,396.5837,39.58133,-2.810848,1.670268,-2.274517,2.77616,3.63843,-12.80375,67.93243,890.4962
22.007262707,135.5869,26.67953,-71.27641,-0.1587652,3.580909,-0.8707962,14.92008,0.3173609,15.1172,890.4947
22.027086258,-206.6796,-30.34756,-15.17014,2.935452,-0.5245052,-0.07032486,14.92008,0.3173609,15.1172,890.4947
22.046910286,-55.66134,-22.80678,22.33602,-1.429682,-1.473312,0.683722,-0.5146008,20.48347,-1.563743,890.4965
