Time (s),Gyroscope X (deg/s),Gyroscope Y (deg/s),Gyroscope Z (deg/s),Accelerometer X (g),Accelerometer Y (g),Accelerometer Z (g),Magnetometer X (uT),Magnetometer Y (uT),Magnetometer Z (uT),Barometer (hPa)
0.000000000,0.1313384,0.07955734,-0.05351043,0.02033225,-0.04740342,0.9870355,-41.95329,22.58133,-21.17937,882.576
0.020017147,-0.2379418,0.07941324,-0.1145408,0.0247364,-0.05029831,0.9846091,-41.95329,22.58133,-21.17937,882.576
0.040034294,0.008615986,-0.09779699,-0.05350946,0.0203452,-0.05518525,0.9816568,-42.69251,22.59444,-21.18594,882.5726
0.060051441,0.00853648,-0.03849231,0.2513194,0.02278489,-0.06099224,0.9893458,-42.69251,22.59444,-21.18594,882.5726
0.080069065,0.008457139,0.02062657,0.007349924,0.02032546,-0.04545381,0.9913996,-42.32636,22.95507,-21.1817,882.5707
0.100086212,0.1313871,-0.1565287,0.007274025,0.0193504,-0.04303489,0.9875517,-42.32636,22.95507,-21.1817,882.5707
0.120103359,-0.1147681,-0.0384251,-0.2366376,0.02325825,-0.04640904,0.9918836,-42.32636,22.95507,-21.1817,882.5707
0.140120506,0.1315771,-0.1563914,-0.1146708,0.0183745,-0.0488671,0.9903992,-42.32407,22.95669,-21.61706,882.5707
0.160138607,0.008508079,-0.03828819,0.0683841,0.02033473,-0.0522605,0.9884446,-42.32407,22.95669,-21.61706,882.569
0.180155754,0.008776575,-0.09721415,0.06832723,0.02325954,-0.04592513,0.9904383,-42.32001,22.2819,-21.18345,882.569
0.200172901,0.07008538,0.1390814,0.1290334,0.02522015,-0.05174607,0.9899129,-42.32001,22.2819,-21.18345,882.5671
0.220190048,-0.05298383,-0.09720811,-0.05388549,0.01984361,-0.04886246,0.9879881,-42.32001,22.2819,-21.18345,882.5671
0.240207672,-0.05285086,0.1390689,0.00705101,0.0213161,-0.05080346,0.9841115,-42.31772,22.28352,-21.61882,882.5654
0.260224819,0.1319503,0.02080521,-0.2366497,0.0188742,-0.05761477,0.9874296,-42.31772,22.28352,-21.61882,882.5654
0.280241966,-0.1759232,0.07990484,0.1291722,0.01936284,-0.05615573,0.986477,-42.31772,22.28352,-21.61882,882.5654
0.300259113,-0.1760806,0.3162006,0.007169076,0.01982566,-0.04253105,0.998669,-42.31772,22.28352,-21.61882,882.5654
0.320276737,0.5627448,0.07991125,0.06829657,0.02179182,-0.03962094,0.9871043,-42.31772,22.28352,-21.61882,882.5637
0.340293884,0.3165695,0.02065122,0.007381305,0.02376105,-0.04884988,0.9817195,-42.31197,21.91796,-22.05514,882.5637
0.360311031,-0.5453667,-0.03842276,-0.1754042,0.03011392,-0.05366849,0.9860467,-42.31197,21.91796,-22.05514,882.5654
0.380328655,-0.3613001,-0.2744707,0.007554421,0.02765921,-0.04493143,0.9890104,-41.94871,22.58458,-22.0501,882.5654
0.400345802,0.5012119,0.2570285,0.1903216,0.02569903,-0.04687769,0.9947857,-41.94871,22.58458,-22.0501,882.567
0.420362949,0.7478273,0.07994708,0.1899968,0.02133546,-0.05810735,0.9729395,-41.95329,22.58133,-21.17937,882.567
0.440380097,-0.299338,-0.03850219,0.1897876,0.01691,-0.05421672,0.9927661,-41.95329,22.58133,-21.17937,882.5651
0.460398197,-0.9769343,-0.0381828,-0.05419965,0.008597163,-0.04697587,0.9908686,-41.95329,22.58133,-21.17937,882.5651
0.480415344,-1.161621,-33.64267,-0.1759125,1.632871,-0.05928594,0.4758182,-42.32061,22.58951,-21.61802,882.5618
0.500432014,-59.89232,-23.42542,4.3347,-0.1306075,0.06800064,-0.001396573,-42.32061,22.58951,-21.61802,882.5618
0.520449161,-52.87419,6.281368,2.993707,-0.3392048,-0.08986378,0.8566117,-42.34554,23.31111,-18.19539,882.5618
0.540467262,-73.55922,-40.90695,5.736647,0.8186168,-0.2933227,0.6294109,-42.34554,23.31111,-18.19539,882.5618
0.560484409,-74.7289,-0.9829166,4.700425,1.286987,-0.3224117,0.9479836,-42.34554,23.31111,-18.19539,882.5651
0.580501556,-132.2283,-107.8211,19.63421,1.884201,-1.464486,0.569289,-37.66374,22.13597,-4.597483,882.5651
0.600518703,-36.25229,103.5519,-0.9683173,1.465326,-0.05545646,0.3883859,-37.66374,22.13597,-4.597483,882.5651
0.620536327,-109.3886,-56.67576,-0.2368667,2.4284,-0.001423147,2.656566,-27.24353,20.06503,8.67607,882.5651
0.640553474,-124.5946,-128.9052,3.603249,1.137819,-0.2069157,1.777032,-27.24353,20.06503,8.67607,882.5651
0.660570621,-187.6962,-68.42856,7.748136,1.359202,0.2384714,1.476058,-27.24353,20.06503,8.67607,882.5651
0.680587768,-12.5507,428.2005,40.35864,0.3935129,0.4595487,-0.01445376,-21.85518,20.31538,14.26052,882.5634
0.700605392,127.4426,-109.0022,-3.040761,0.6704456,0.3048396,1.924316,-21.85518,20.31538,14.26052,882.5634
0.720622539,-156.0531,-96.48169,-9.623816,1.430889,-1.197967,1.821398,-17.76888,11.98572,13.46603,882.5634
0.740639687,-196.4381,141.8813,27.07062,0.2092464,-1.992721,-2.391463,-17.76888,11.98572,13.46603,882.5634
0.760656834,68.03472,-97.48569,-1.638814,0.4619051,-0.4189572,1.481444,-17.76888,11.98572,13.46603,882.5651
0.780674457,-113.3287,-107.4667,-17.73073,0.2792271,-0.8228945,2.089171,-24.90223,35.47599,16.01564,882.5651
0.800691605,212.8299,162.9064,-1.638814,-0.1114177,-0.9622809,-0.1958702,-24.90223,35.47599,16.01564,882.5651
0.820708752,73.94473,-75.57472,-0.8464089,0.3078052,-1.164612,0.4786243,-11.12526,31.25609,15.69194,882.5651
0.840725899,-143.8637,-79.11828,-2.918852,2.934945,-0.8721702,3.124812,-11.12526,31.25609,15.69194,882.5651
0.860743999,1.300882,90.55888,11.71016,0.06477341,-0.6372128,2.27558,-11.12526,31.25609,15.69194,882.5651
0.880761147,86.99599,-132.744,-0.6025921,-1.043925,1.21616,1.09817,-18.99817,23.1324,16.40836,882.5651
0.900778294,169.6745,99.59494,-25.10619,-0.04633075,1.453685,3.803743,-18.99817,23.1324,16.40836,882.5651
0.920795917,237.3318,247.7155,9.3939,-0.9164429,0.1152246,-1.773497,-11.82432,34.51808,13.95291,882.5651
0.940813065,227.2356,79.16045,10.73489,-0.2592469,-0.9300308,1.218027,-11.82432,34.51808,13.95291,882.5651
0.960830212,127.9967,47.03223,-1.821676,1.399124,0.6746446,2.95522,-11.82432,34.51808,13.95291,882.567
0.980847359,284.3041,-73.68483,5.919509,0.1701292,0.8202647,0.988874,-18.26842,26.0081,13.0639,882.567
1.000864983,305.851,48.3906,13.47783,0.08223657,0.1686551,0.9735512,-18.26842,26.0081,13.0639,882.567
1.020882130,264.2347,1313.853,-110.0154,10.50253,6.553092,10.10695,-14.77372,41.73905,11.39586,882.567
1.040899277,-4.670688,1934.565,-297.0839,15.82802,-2.989204,-15.79396,-14.77372,41.73905,11.39586,882.567
1.060916424,-148.2962,1930.726,-141.8335,-3.042969,-2.334104,-15.84623,-14.77372,41.73905,11.39586,882.5616
1.080934048,13.55184,-99.72994,-24.13092,0.6736426,0.7228453,3.059241,-6.715466,12.31316,-27.29874,882.5616
1.100951195,-219.0932,-25.07908,5.919509,0.7599409,-0.2484676,0.6180112,-6.715466,12.31316,-27.29874,882.5611
1.120968342,38.91562,-23.48448,-2.614081,-0.112677,0.5534316,-1.468887,1.960321,9.626059,-20.82205,882.5611
1.140985489,118.3314,-17.63762,-10.59908,1.10004,0.9096888,1.922887,1.960321,9.626059,-20.82205,882.5611
1.161003590,-111.4202,-44.33239,11.40539,-0.1953474,0.1151301,-1.50755,1.960321,9.626059,-20.82205,882.5611
1.181020737,18.47684,-20.29528,0.7993549,-0.4585795,-0.04509671,-0.7381352,10.04338,30.62913,-14.34914,882.5628
1.201037884,-10.82695,260.7085,6.163326,-0.243615,-0.9140953,-4.188805,10.04338,30.62913,-14.34914,882.5628
1.221055031,75.36067,-148.3357,-11.14767,1.123248,0.710825,1.035279,13.30472,28.78209,-10.46868,882.5611
1.241072655,-92.52049,91.681,-4.747478,-0.6232719,-1.107667,-2.47891,13.30472,28.78209,-10.46868,882.5611
1.261089802,116.7923,34.39356,-8.648548,-0.07402472,1.286709,0.8750895,16.90823,32.70009,-11.66993,882.5611
1.281106949,115.3148,-73.03518,2.201302,-0.4048634,-0.07705267,-1.921384,16.90823,32.70009,-11.66993,882.5611
1.301124096,-43.39355,-53.95904,-1.943585,-0.4791306,-1.207229,-1.955123,16.90823,32.70009,-11.66993,882.5611
1.321141720,-72.7589,62.32857,-3.46744,0.4967984,0.175645,0.8883777,13.64744,29.49573,-6.669594,882.5611
1.341158867,30.41998,-64.58971,-21.38798,1.908552,1.964614,-0.1757045,13.64744,29.49573,-6.669594,882.5611
1.361176014,18.0459,-50.17925,-8.83141,-1.514001,-0.08607122,-3.039336,19.41303,35.84405,-13.38066,882.5611
1.381193161,35.71437,106.5639,3.725157,0.9608007,-0.3306274,-0.5521672,19.41303,35.84405,-13.38066,882.5593
1.401210785,-0.05349468,-53.60468,-2.857898,-0.6251716,0.2439282,-2.257568,19.41303,35.84405,-13.38066,882.5593
1.421227932,113.1601,59.67091,-0.6635463,-0.494734,0.1462551,-1.719313,10.75563,29.17991,-6.696269,882.5611
1.441245079,90.38194,-18.58257,-1.638814,0.5081034,0.7501022,-0.8281655,10.75563,29.17991,-6.696269,882.5611
1.461263180,37.93062,404.813,-25.65478,2.332712,-2.043124,-2.192252,22.45549,26.16322,-24.01546,882.5611
1.481280327,-46.16387,1934.565,-353.1008,12.42946,-5.887123,-14.75228,22.45549,26.16322,-24.01546,882.5611
1.501297474,-110.5583,1934.565,-253.1969,-3.06511,0.1065005,-15.82608,22.45549,26.16322,-24.01546,882.5558
1.521314144,-74.48266,-150.2846,-36.38271,-1.541957,-0.06188231,-0.8970932,50.05745,14.55393,-28.09188,882.5558
1.541332245,-570.3693,-313.4652,26.52203,-4.258058,2.745881,2.530229,50.05745,14.55393,-28.09188,882.554
1.561349392,-16.18289,316.8739,7.991953,-0.09176268,-0.4442672,-0.2441805,-15.21666,17.75084,-1.85868,882.554
1.581366539,-497.5407,-306.7325,-5.174158,1.730617,-0.7480878,3.056999,-15.21666,17.75084,-1.85868,882.5558
1.601383686,46.79564,469.7782,-1.943585,1.588851,-0.7256575,4.724951,-15.21666,17.75084,-1.85868,882.5558
1.621401310,150.2823,-219.2658,11.46634,-0.1290931,-0.5807872,1.673988,-23.64509,20.71426,14.24561,882.5558
1.641418457,146.527,108.2766,-6.21038,1.218179,-0.9301696,1.296383,-23.64509,20.71426,14.24561,882.5558
1.661435604,-75.52922,87.84216,3.115615,0.6763381,-1.159801,0.05221613,-20.3598,19.19225,13.02689,882.5558
1.681452751,20.20059,-105.8721,1.835577,-1.065847,0.07553163,1.031651,-20.3598,19.19225,13.02689,882.5558
1.701470375,-165.4722,296.7937,34.14132,0.4285657,-0.8100877,-1.887267,-20.3598,19.19225,13.02689,882.5608
1.721487522,202.7952,-170.7191,-19.31554,0.5880116,0.01418252,3.240079,-8.358007,45.96119,13.64145,882.5608
1.741504669,-389.8678,-194.4019,12.68543,4.396913,-4.551773,0.3087505,-8.358007,45.96119,13.64145,882.5608
1.761521816,183.1568,-291.3771,-5.600838,-2.455032,-0.4985451,-1.764846,-18.94311,17.75005,15.5858,882.5608
1.781539440,11.45871,38.88206,5.919509,-2.438289,0.2239664,-1.147673,-18.94311,17.75005,15.5858,882.5608
1.801556587,56.8919,299.3333,24.26673,2.587844,-1.751593,-0.7402124,-18.94311,17.75005,15.5858,882.5608
1.821573734,273.7153,-112.782,2.993707,0.1602308,-0.1468632,0.5469986,-11.17842,37.37908,14.83715,882.559
1.841590881,356.5786,-83.84302,10.12535,-0.6774659,0.3708222,2.219376,-11.17842,37.37908,14.83715,882.559
1.861608982,-11.68882,149.8543,6.711914,-0.7907286,0.05387243,1.507682,-17.88841,24.89999,13.06431,882.559
1.881626129,198.6705,34.3345,13.72165,0.7382822,1.592744,1.49362,-17.88841,24.89999,13.06431,882.559
1.901643276,306.1588,95.04738,-21.81466,1.309441,0.2046441,3.915353,-17.88841,24.89999,13.06431,882.559
1.921660423,284.9197,1927.005,-465.2566,8.421941,0.3510686,-15.78953,-17.6516,38.96883,13.10426,882.559
1.941678047,-36.12917,1934.565,-341.3976,8.127502,-2.815746,-15.81664,-17.6516,38.96883,13.10426,882.5536
1.961695194,120.1782,-60.86897,-51.56031,-4.904255,-0.4694813,-8.39111,-13.68747,21.8099,-30.32098,882.5536
1.981712341,-156.3609,114.9503,8.357678,-0.8606299,-0.9767758,-1.063499,-13.68747,21.8099,-30.32098,882.5554
2.001729488,-174.5219,71.42369,10.61298,0.3426356,-0.504847,-2.185977,-0.647789,20.08557,-23.80273,882.5554
2.021747112,50.61251,-6.711661,3.725157,-0.8982852,-0.1148955,0.4083267,-0.647789,20.08557,-23.80273,882.5554
2.041764259,-20.43071,26.18433,1.286989,0.1937357,0.165038,-0.3233044,-0.647789,20.08557,-23.80273,882.5554
2.061781406,-59.21513,-162.3327,2.688936,-0.3490896,-0.08197838,-1.133782,10.41476,29.94615,-13.47688,882.5554
2.081798553,-162.9481,26.12527,1.347943,-0.2061518,0.3995875,-1.669485,10.41476,29.94615,-13.47688,882.5554
2.101816177,232.2837,29.78694,3.847066,-1.270435,-0.5023155,-2.461832,14.04852,28.77223,-11.33284,882.5554
2.121833324,-39.63823,81.28658,-0.1759125,0.3475115,0.7811117,-0.6134057,14.04852,28.77223,-11.33284,882.5536
2.141850472,4.502137,-123.0583,10.18631,-0.1073522,-1.138296,-3.109526,14.04852,28.77223,-11.33284,882.5536
2.161867619,-50.84262,333.7057,9.576763,-0.1249642,0.2722111,-2.038429,16.54437,32.34109,-12.10953,882.5554
2.181885719,-63.95546,-127.1334,-4.808433,1.490742,-0.3199606,0.1640394,16.54437,32.34109,-12.10953,882.5554
2.201902866,69.45066,-80.18134,-3.223624,0.2583415,-0.4411817,-0.7919199,13.64397,29.86292,-6.668638,882.5554
2.221920013,-67.15671,199.405,25.3639,-1.119081,-0.7520907,-1.312668,13.64397,29.86292,-6.668638,882.5554
2.241936684,-161.3475,153.9885,2.810844,0.3242491,-0.9760215,-2.003453,13.64397,29.86292,-6.668638,882.5572
2.261954784,90.75131,-64.70782,-10.8429,0.3400903,1.605506,-0.7182,19.40728,36.20961,-12.94434,882.5572
2.281971932,7.641828,163.8514,4.029929,-0.1438929,0.1205018,-2.041674,19.40728,36.20961,-12.94434,882.559
2.301989079,79.17755,-91.93413,-7.063739,0.6013063,-0.8324318,-0.8018591,10.75563,29.17991,-6.696269,882.559
2.322006226,68.52722,5.572658,2.627981,-0.7132605,-0.2225074,-2.239955,10.75563,29.17991,-6.696269,882.559
2.342023850,113.1601,42.13032,-12.12294,0.9791641,1.154438,2.291234,10.75563,29.17991,-6.696269,882.559
2.362040997,-157.7153,1934.565,-171.6401,16.00838,-1.376552,-7.407219,23.10935,26.50398,-20.1524,882.559
2.382058144,-71.52766,1934.565,-430.9394,12.96699,-4.303571,-15.81441,23.10935,26.50398,-20.1524,882.559
2.402075291,-151.559,1099.291,-81.42788,-3.718971,-1.378389,-13.58758,22.93755,12.80611,-21.49694,882.5519
2.422092915,-135.9221,120.9744,-2.065493,0.504398,0.002430188,2.447907,22.93755,12.80611,-21.49694,882.5519
2.442110062,-414.9853,19.56969,44.0159,0.1372968,-0.2133126,3.887595,22.93755,12.80611,-21.49694,882.5505
2.462127209,-250.1823,-29.27229,18.11035,-0.2437724,2.181428,2.015857,-35.52906,24.60844,-5.007159,882.5505
2.482144356,251.8606,53.23346,-36.1389,0.2175839,3.516883,7.725666,-35.52906,24.60844,-5.007159,882.5522
2.502162456,183.5877,54.00122,21.40188,-0.6913029,0.3691593,-1.390506,-21.86094,20.68094,14.69684,882.5522
2.522179127,-51.45825,-389.7107,-14.19538,0.5022966,0.8223307,3.641219,-21.86094,20.68094,14.69684,882.5554
2.539694309,76.09942,249.8416,8.052907,0.543319,-0.6878998,-1.470915,-21.86094,20.68094,14.69684,882.5554
2.559711456,259.679,-87.68186,-2.979807,0.002889264,-1.083737,0.7764589,-20.72653,18.89282,13.02281,882.5522
2.579728603,-265.3267,-60.98709,9.698671,1.727407,-4.55664,0.2316011,-20.72653,18.89282,13.02281,882.5522
2.599746704,-145.5259,95.51985,0.250767,-0.05072983,-1.636559,-1.024015,-7.98147,45.22026,13.64283,882.554
2.619763851,97.64632,-280.9236,-16.81642,0.6879135,0.2668241,2.47577,-7.98147,45.22026,13.64283,882.554
2.639780998,-383.4037,153.8113,15.36741,2.164941,0.7174438,6.306821,-7.98147,45.22026,13.64283,882.5558
2.659798145,-6.640691,-109.711,-1.57786,1.335696,-0.7211865,2.625098,-18.20389,17.73693,15.59236,882.5558
2.679815769,20.75466,-273.7775,-12.42771,0.2264723,-0.685755,2.37905,-18.20389,17.73693,15.59236,882.5558
2.699832916,200.3943,430.9172,-9.319044,-1.449096,-3.710226,-9.473796,-11.1917,38.78662,14.84082,882.5558
2.719850063,421.4655,-53.60468,3.786111,1.691761,0.5474813,1.910554,-11.1917,38.78662,14.84082,882.5558
2.739867210,173.3067,-157.4308,5.614738,0.5874542,0.2514532,2.295623,-11.1917,38.78662,14.84082,882.5558
2.759884357,143.0795,-22.36236,15.67218,-1.122236,-0.8540942,-0.2192695,-17.51651,24.89506,12.63223,882.5575
2.779901981,196.3311,12.06917,-0.3587752,0.5463406,0.07094289,1.228738,-17.51651,24.89506,12.63223,882.5575
2.799919128,499.2806,742.6318,-83.50033,4.738414,-1.464257,3.596849,-18.74434,38.26064,11.35104,882.5593
2.819936275,10.16589,1934.447,-398.5727,16.01872,-1.958527,-15.78582,-18.74434,38.26064,11.35104,882.5593
2.839953423,-185.8494,1934.565,-301.4117,-0.9478281,-3.850432,-15.85249,-18.74434,38.26064,11.35104,882.5522
2.859971046,-26.95634,-339.9828,-25.16714,1.545952,0.6711017,4.034425,-9.713889,27.13864,-34.12747,882.5522
2.879988193,-41.1773,-115.9122,0.8603091,-0.8485455,-1.050866,-3.38882,-9.713889,27.13864,-34.12747,882.554
2.900005341,-85.4408,224.269,4.456608,-0.2187159,0.3008992,-1.304623,2.952182,17.88515,-25.08267,882.554
2.920022488,51.47439,-149.2216,-2.248356,0.734601,-0.2185976,0.5321882,2.952182,17.88515,-25.08267,882.554
2.940040588,-82.60892,29.37352,9.454854,-0.7195275,-0.2323517,-2.306725,2.952182,17.88515,-25.08267,882.554
2.960057735,-6.763816,-63.11322,4.578516,0.5567537,0.5158647,0.3642983,9.690516,28.86096,-14.35704,882.554
2.980074406,-236.9463,273.4653,12.3197,-0.1054154,-0.9345648,-4.072612,9.690516,28.86096,-14.35704,882.5558
3.000091553,248.3515,-347.6015,-6.758968,0.1603777,1.353439,1.82953,14.3577,28.39795,-10.8957,882.5558
3.020109653,-152.9749,133.4359,-1.273088,-1.016294,-0.1268858,-1.475788,14.3577,28.39795,-10.8957,882.5575
3.040126801,103.6179,-40.2573,-7.124693,0.8013228,0.3404069,-1.332149,15.80286,32.35257,-11.68073,882.5575
3.060143948,99.12383,-40.61165,7.504319,-1.450505,0.03263268,-1.426978,15.80286,32.35257,-11.68073,882.5611
3.080161095,-60.13857,132.4319,10.55203,-0.09795144,-1.185685,-1.925778,15.80286,32.35257,-11.68073,882.5611
3.100178719,-115.114,-144.674,-6.21038,0.7371776,1.549994,0.8014438,13.64338,30.17053,-7.103205,882.5598
3.120195866,119.8089,-77.3465,-11.33053,0.5988126,0.5042358,-0.4801546,13.64338,30.17053,-7.103205,882.5598
3.140213013,-3.685687,274.4103,-2.126448,-0.1749727,-0.9748746,-3.081805,19.41532,35.84567,-13.81602,882.5616
3.160230160,-9.103195,-88.68587,2.810844,0.2334632,0.7017438,0.4175254,19.41532,35.84567,-13.81602,882.5616
3.180247784,-57.98388,164.2057,-5.235112,-0.6618299,0.3150878,-2.307816,19.41532,35.84567,-13.81602,882.5634
3.200264931,168.5664,-39.43047,-4.442708,0.3205873,0.1734919,-1.384254,10.75792,29.18154,-7.131633,882.5634
3.220282078,129.2895,-50.76984,-4.62557,-0.5815083,0.3840383,-1.251399,10.75792,29.18154,-7.131633,882.5634
3.240299225,-1.83881,333.1742,-25.16714,1.963187,-0.6510642,0.975798,23.11734,26.87929,-22.32826,882.5634
3.260316372,-91.22768,1934.565,-467.2681,11.45786,-5.731294,-14.91189,23.11734,26.87929,-22.32826,882.5634
3.280333996,-67.21828,1934.565,-320.0636,-4.91304,0.6037596,-15.82752,23.11734,26.87929,-22.32826,882.5634
3.300351143,-168.2425,-254.9966,-31.32352,-1.194183,-0.3722579,-0.06766247,31.36731,19.26952,-54.61823,882.5545
3.320368290,-435.9166,-68.84197,25.91249,-3.254744,2.514119,0.7124016,31.36731,19.26952,-54.61823,882.5545
3.340385437,-57.24513,214.347,10.55203,0.4266537,-1.730502,-1.257668,-37.2548,22.46536,-12.61654,882.5545
3.360403538,-425.6357,-286.0618,31.70314,0.0552299,0.53753,2.890622,-37.2548,22.46536,-12.61654,882.5545
3.380420685,-208.7506,558.0126,12.62447,0.9157515,-2.007631,-2.591887,-37.2548,22.46536,-12.61654,882.5562
3.400437832,235.1156,-10.31427,4.761379,-0.0958866,-0.2770545,-0.1833851,-20.74172,19.55972,14.70382,882.5562
3.420454502,-73.9286,-159.6751,14.33119,1.927623,-2.987977,1.323021,-20.74172,19.55972,14.70382,882.5581
3.440472603,-27.87978,102.5479,12.3197,-2.966017,-2.329483,-6.475962,-20.35921,18.88463,13.46146,882.5581
3.460489750,13.1209,42.36656,2.810844,-1.639776,1.602212,0.4493053,-20.35921,18.88463,13.46146,882.5581
3.480506897,291.3838,249.0739,2.932752,0.2655703,-0.05449577,1.924471,-20.35921,18.88463,13.46146,882.5581
3.500524044,245.2118,-161.565,-19.19363,1.138743,0.3519576,1.83384,-8.721861,45.60219,13.20185,882.5562
3.520541668,-268.1585,-50.47454,31.15455,2.740474,-2.923037,0.8216312,-8.721861,45.60219,13.20185,882.5562
3.540558815,35.77593,-76.51967,-8.282823,-1.165999,-1.469754,-2.873896,-19.30925,17.38942,15.58156,882.5581
3.560575962,19.15403,-164.2226,8.479587,-0.1473473,0.2721941,1.201265,-19.30925,17.38942,15.58156,882.5581
3.580593109,-322.5183,43.25245,60.71735,0.5532213,-3.899219,-9.228269,-19.30925,17.38942,15.58156,882.5581
3.600610256,588.2385,-114.6719,9.942488,-0.8547716,-0.09375958,-1.696778,-11.1894,38.78824,14.40546,882.5581
3.620627880,189.1283,-11.96793,15.48932,-0.6822228,-0.5219098,1.09211,-11.1894,38.78824,14.40546,882.5581
3.640645027,72.15942,-74.51166,8.296724,-0.9064823,0.5850793,0.6377808,-17.52227,25.26062,13.06855,882.5581
3.660662174,161.2405,-4.408351,7.930999,0.3595333,-0.1830738,2.745466,-17.52227,25.26062,13.06855,882.5598
3.680679321,311.4532,144.1846,-4.320799,0.4576029,0.5002888,0.7339365,-17.52227,25.26062,13.06855,882.5598
3.700696945,356.8248,1926.651,-472.9368,13.27909,-1.78195,-15.79259,-20.52615,37.55634,11.76863,882.5565
3.720714092,-12.85851,1934.565,-406.7405,7.217344,-3.275498,-15.82318,-20.52615,37.55634,11.76863,882.5565
3.740731239,145.2958,-202.5521,-50.03646,-4.782296,-0.2225744,-6.711328,-4.239795,20.91948,-33.22453,882.5495
3.760748386,-144.7256,260.118,-1.699768,-0.5089684,-1.636562,-2.039931,-4.239795,20.91948,-33.22453,882.5495
3.780766487,-421.511,137.4519,24.5715,0.8605897,-0.2408206,-2.681773,3.063076,5.642426,-24.24383,882.5495
3.800783634,58.12315,-30.74877,-0.6635463,-1.004596,-0.5027628,-2.422387,3.063076,5.642426,-24.24383,882.5495
3.820800781,11.76652,91.26759,-1.943585,0.662824,0.02169818,0.2982029,3.063076,5.642426,-24.24383,882.5477
3.840817928,-52.197,-105.5177,1.16508,-0.2927117,-0.3670342,0.1742317,8.938018,30.28162,-14.35994,882.5477
3.860835075,-120.7777,-64.64877,-5.05225,0.9005339,0.80391,0.0005505998,8.938018,30.28162,-14.35994,882.5462
3.880852699,82.62505,141.9404,7.809091,-1.837089,-1.092397,-3.542384,14.73424,27.65703,-10.89433,882.5462
3.900869846,-108.9577,88.25557,6.955731,0.7545599,0.9145718,-0.2197547,14.73424,27.65703,-10.89433,882.548
3.920886993,56.21471,-6.00295,2.201302,-0.6248823,-1.528806,-4.129338,14.73424,27.65703,-10.89433,882.548
3.940904140,60.03159,122.2737,-5.174158,0.07914974,1.119181,0.001175812,16.53377,33.01124,-11.29924,882.548
3.960921764,-32.49697,38.64582,-2.73599,0.8676538,0.2448179,-1.143844,16.53377,33.01124,-11.29924,882.548
3.980938911,72.09785,-117.743,3.115615,0.7925759,-0.2999672,-0.9118556,13.27665,29.8711,-7.107285,882.548
4.000956059,-27.01791,180.2698,9.576763,-1.572445,-0.7530659,-0.2391105,13.27665,29.8711,-7.107285,882.548
4.020973206,-45.36355,218.7765,-4.016028,0.747195,-0.6108354,-2.411736,13.27665,29.8711,-7.107285,882.548
4.040990353,68.46566,-137.3507,-5.7837,0.3771532,0.6950705,-0.4043578,18.67264,36.22597,-13.82163,882.5498
4.061007977,-66.3564,174.9545,-1.029272,0.5931159,0.5245267,-2.300377,18.67264,36.22597,-13.82163,882.5498
4.081025124,32.88249,-182.4719,0.6774465,0.2689294,-0.8222494,-1.622618,10.75216,29.54709,-6.695313,882.5498
4.101042271,136.4308,17.0892,-2.857898,-0.6924304,-0.09839385,-2.171229,10.75216,29.54709,-6.695313,882.5498
4.121059418,31.58967,133.8493,-9.440953,0.9730461,1.162512,0.4225981,10.75216,29.54709,-6.695313,882.5466
4.141077518,-105.5718,1934.565,-256.0008,15.99946,0.5265177,-1.200865,21.34778,26.55332,-24.89508,882.5466
4.161094189,-18.76852,1934.565,-546.0209,11.96296,-4.726418,-15.82093,21.34778,26.55332,-24.89508,882.5447
4.181111336,-127.7343,1003.91,-93.92349,-6.244299,-0.2468109,-13.23651,50.55586,14.26913,-51.91019,882.5447
4.201128483,-141.0934,165.505,-11.69626,1.085833,0.7763374,2.878788,50.55586,14.26913,-51.91019,882.5377
4.221145630,-57.36826,87.1925,20.60947,1.88083,-1.388131,3.796146,50.55586,14.26913,-51.91019,882.5377
4.241163731,-262.9873,-222.8684,23.84005,-0.5623119,1.533853,1.957361,-17.33431,16.33777,-6.546274,882.5377
4.261180878,4.502137,-159.5569,57.66964,-0.4808395,-2.258018,-3.897252,-17.33431,16.33777,-6.546274,882.5377
4.281198025,-53.61294,286.9308,14.81883,-1.292496,-0.08935358,-3.119378,-22.60245,20.69243,15.12564,882.5394
4.301215172,28.51154,-208.9895,-16.69451,0.5293021,1.950975,5.212554,-22.60245,20.69243,15.12564,882.5394
4.321232796,-57.55294,242.6954,-12.61057,0.6834534,2.146502,6.154293,-22.60245,20.69243,15.12564,882.5413
4.341249943,13.24402,38.823,10.43012,-0.5364966,-0.1197683,0.7364419,-20.36098,19.56106,12.59248,882.5413
4.361267090,-142.3862,-37.18622,-4.503662,0.5549265,1.965034,5.440294,-20.36098,19.56106,12.59248,882.5413
4.381284237,84.41037,13.48659,-2.979807,-0.6246453,0.3869535,-0.7307082,-7.991863,46.32182,13.64569,882.5413
4.401301384,174.3533,-274.4862,-6.149426,-0.4198959,0.7120626,4.470905,-7.991863,46.32182,13.64569,882.5413
4.421319008,226.9893,348.7658,3.786111,-1.984,-2.714424,-3.374125,-7.991863,46.32182,13.64569,882.5413
4.441336155,103.5563,-6.239187,10.30821,0.5468538,-0.4502907,-0.07708591,-18.57814,18.47949,15.15563,882.5397
4.461353302,-89.19611,-197.3548,-4.808433,0.3562393,-0.9529382,4.025612,-18.57814,18.47949,15.15563,882.5397
4.481370449,70.25098,434.6379,-9.014274,-1.134144,-1.091762,-1.97401,-11.56131,38.79317,14.83754,882.5397
4.501388073,324.8738,47.38659,3.115615,0.4833802,1.462634,2.223211,-11.56131,38.79317,14.83754,882.5397
4.521405220,139.2011,-89.09928,10.30821,0.2954105,0.4655187,1.525951,-11.56131,38.79317,14.83754,882.5397
4.541422367,163.9492,-2.22316,4.883287,0.5464887,-0.2604624,0.5114684,-17.21197,25.25678,12.63592,882.5397
4.561439514,188.0818,-16.63361,5.858555,1.050647,0.003884211,1.356274,-17.21197,25.25678,12.63592,882.5416
4.581456661,492.9397,1135.671,-162.497,7.632701,6.153737,11.91877,-18.75009,38.6262,11.78736,882.5416
4.601474762,-6.948504,1934.565,-525.5403,15.5945,-3.682406,-15.79992,-18.75009,38.6262,11.78736,882.5397
4.621491432,-68.57265,1903.146,-199.801,-4.861229,-3.37313,-15.8603,-0.5058941,12.23895,-36.63545,882.5397
4.641508579,-121.6396,-60.6918,-4.930341,1.327487,2.00975,3.472365,-0.5058941,12.23895,-36.63545,882.5363
4.661525726,-56.99888,-112.6049,7.565273,1.005057,1.042416,-0.1111749,-0.5058941,12.23895,-36.63545,882.5363
4.681542873,-60.50795,117.8442,6.711914,-0.1006215,0.2044078,-2.323954,5.665234,2.341919,-21.24394,882.5363
4.701560974,116.977,-49.17524,-3.345532,0.9906729,0.6792703,1.576673,5.665234,2.341919,-21.24394,882.5363
4.721578121,-52.6895,16.73485,6.163326,-0.1641548,-0.1896172,-2.043338,9.675735,30.63708,-14.72559,882.5347
4.741595268,-28.98791,-51.89197,9.089129,0.1226502,0.7271088,-0.131415,9.675735,30.63708,-14.72559,882.5347
4.761612415,-96.953,227.4582,-5.417975,-0.4121438,-1.080072,-3.73221,9.675735,30.63708,-14.72559,882.5366
4.781630039,101.7095,-213.7733,-7.856143,1.302505,0.5245626,1.270035,13.69356,27.68025,-12.14753,882.5366
4.801647186,-198.6544,128.1796,-3.833166,-0.9249167,-0.3456433,-2.961934,13.69356,27.68025,-12.14753,882.5383
4.821664333,161.6714,-47.40347,-4.076982,0.6409245,0.6306252,1.854942,16.17594,31.97883,-11.67841,882.5383
4.841681480,163.3336,-16.16114,-2.675035,-1.025764,-0.5807644,-1.822103,16.17594,31.97883,-11.67841,882.5383
4.861698627,15.5834,-95.83204,6.102372,-0.3608493,-1.214754,-1.535487,16.17594,31.97883,-11.67841,882.5383
4.881716251,-193.7909,96.11044,-1.57786,0.6095356,0.5960729,-0.5213927,14.02738,29.12687,-7.97336,882.5419
4.901733398,-43.02417,60.79303,-8.09996,0.4833373,0.09795068,-0.0770845,14.02738,29.12687,-7.97336,882.5419
4.921750545,48.70407,-72.5627,4.395654,-1.226596,-1.097821,-1.073331,17.93688,35.8719,-13.82916,882.5436
4.941767693,-120.2852,82.88118,-2.73599,0.1797975,0.7253441,-0.9293619,17.93688,35.8719,-13.82916,882.5436
4.961784840,2.963072,-39.13517,-2.004539,-0.7809326,-0.1537709,-2.515447,17.93688,35.8719,-13.82916,882.5453
4.981802464,113.6526,117.608,-5.113204,-0.5006205,0.2057344,-0.497526,11.14485,27.33906,-7.133133,882.5453
5.001819611,116.8539,-67.36549,0.9822176,-0.4672782,-0.3243757,-0.6201789,11.14485,27.33906,-7.133133,882.5453
5.021836758,255.9853,680.5015,-73.93051,5.502985,-3.091388,-0.3410783,23.13081,26.14957,-23.57407,882.5422
5.041853905,72.8366,1934.447,-482.8723,16.01901,-2.294775,-15.7886,23.13081,26.14957,-23.57407,882.5422
5.061872005,-130.3815,1934.565,-292.2076,-2.172821,-3.088372,-15.84986,23.13081,26.14957,-23.57407,882.5403
5.081888676,-176.5534,-207.8083,-14.4392,1.414842,0.7514231,3.249153,35.1827,11.16206,-16.29174,882.5403
5.101905823,-420.8338,-312.166,43.95494,2.447227,-1.393094,2.201115,35.1827,11.16206,-16.29174,882.5386
5.121922970,-233.0063,157.0596,33.59273,-3.891541,-1.838309,-7.820632,-27.19,18.68606,1.022433,882.5386
5.141940117,-665.8528,-146.5049,-11.5134,-1.073026,2.239398,4.322163,-27.19,18.68606,1.022433,882.5422
5.161958218,259.4328,538.7593,-10.23336,0.1175356,-0.9087334,2.492341,-27.19,18.68606,1.022433,882.5422
5.181975365,63.2944,-242.2989,-9.379999,-0.6251518,0.469184,0.05599751,-22.97631,20.69596,15.93089,882.5422
5.201992512,-86.24111,225.273,-5.174158,0.2705664,-3.101792,-3.858018,-22.97631,20.69596,15.93089,882.5422
5.222009659,-56.26013,-77.52367,14.14833,0.4046172,-1.720687,-0.3977104,-21.85753,21.053,13.39171,882.5406
5.242026806,-358.4093,-369.2762,2.871798,0.7489436,0.3366905,4.973748,-21.85753,21.053,13.39171,882.5406
5.262044430,90.38194,300.5735,-0.6635463,-2.149858,0.08764008,-3.180395,-21.85753,21.053,13.39171,882.5424
5.282061577,147.2658,-162.0965,-12.42771,0.2121444,-1.538577,0.6337011,-9.731752,40.96512,14.42433,882.5424
5.302078724,103.6795,61.50174,-10.29431,0.2735011,3.755778,7.383835,-9.731752,40.96512,14.42433,882.5424
5.322095871,-4.116625,-69.43256,4.151837,0.8578374,-0.8396556,1.754041,-18.96528,19.89056,15.96455,882.5424
5.342113018,-11.75039,-309.272,-15.35351,0.6353638,1.355675,4.395828,-18.96528,19.89056,15.96455,882.5424
5.362130642,498.1725,426.2516,6.346189,-0.07570631,0.1404821,2.303339,-18.96528,19.89056,15.96455,882.5424
5.382147789,389.1451,-139.713,-1.57786,1.271426,0.660428,2.662435,-11.53305,36.28733,13.96027,882.5442
5.402164936,242.0721,-148.3357,6.163326,0.2080668,0.8613313,2.779265,-11.53305,36.28733,13.96027,882.5442
5.419680119,-33.6051,52.28851,3.420386,0.2706845,-0.4262561,1.169683,-17.90227,26.36873,13.06814,882.5459
5.439697266,211.2293,-28.74075,9.881534,0.7933565,-0.1881292,1.252457,-17.90227,26.36873,13.06814,882.5459
5.459714889,302.2188,150.9765,-24.61856,1.544611,-0.510121,2.289294,-17.90227,26.36873,13.06814,882.5459
5.479732036,-208.1966,1934.565,-533.5253,6.002332,-6.383913,-15.68735,-12.98766,42.44637,10.16974,882.5459
5.499749184,-18.83008,1934.565,-468.5481,-0.9333397,-0.2419874,-15.82256,-12.98766,42.44637,10.16974,882.5392
5.519766331,118.516,-471.8621,-21.50989,-0.4112419,0.355671,1.110821,-12.52281,14.92985,-28.64973,882.5392
5.539783478,-123.3018,25.41656,10.12535,-0.9195663,-0.1960749,-3.048123,-12.52281,14.92985,-28.64973,882.5409
5.559800625,-62.2317,42.36656,4.456608,0.7517281,-0.8493091,-2.353308,-12.52281,14.92985,-28.64973,882.5409
5.579818249,70.92816,-2.459397,-0.4197294,-0.9456544,0.05800653,-0.1667385,-1.315551,11.09314,-21.28275,882.5428
5.599835396,-81.56236,85.36166,-8.09996,0.8080068,0.244031,-1.127604,-1.315551,11.09314,-21.28275,882.5428
5.619852543,-101.6933,-120.5779,9.942488,0.3160846,-0.9290612,-1.744622,10.79242,29.57566,-14.34528,882.5445
5.639871120,-103.0477,-56.26235,0.7993549,0.9790823,0.4280376,-0.8535728,10.79242,29.57566,-14.34528,882.5445
5.659887791,151.1442,27.42457,5.797601,-1.681101,-0.8627409,-2.524508,14.06434,27.30488,-11.70984,882.543
5.679904938,-102.2474,154.52,0.1288586,0.546352,0.6089053,-0.8326017,14.06434,27.30488,-11.70984,882.543
5.699922085,43.77907,-77.87803,6.529051,-0.1967522,-0.4170569,-1.590226,14.06434,27.30488,-11.70984,882.5448
5.719938755,-6.14819,211.2759,-1.943585,-0.3128879,-0.143558,-1.533235,15.42979,32.72631,-11.68306,882.5448
5.739955902,68.03472,-75.33849,1.59176,-0.1069148,0.0197115,-0.5795295,15.42979,32.72631,-11.68306,882.5466
5.759974003,67.29597,29.25541,-2.492173,1.074814,1.740102,-0.08537955,15.08383,28.37555,-8.401336,882.5466
5.779991150,21.1856,-100.734,-7.246602,0.1922785,-0.6959811,-1.3701,15.08383,28.37555,-8.401336,882.5466
5.800008297,-66.91046,54.88711,6.590006,0.0681089,-0.1705194,-2.144901,15.08383,28.37555,-8.401336,882.5466
5.820025444,34.05218,-74.98413,0.7993549,0.1891509,0.2093162,-0.6128197,17.91498,37.70457,-12.95364,882.5501
5.840042591,5.240888,142.1766,-5.05225,-0.3219537,-0.8255705,-2.058258,17.91498,37.70457,-12.95364,882.5501
5.860060215,-45.48668,106.3867,3.054661,0.5064393,-0.2296911,-2.02861,11.46033,27.03086,-8.001923,882.5486
5.880077362,155.0227,-60.33744,-7.063739,-0.1114843,-0.2538453,-2.314255,11.46033,27.03086,-8.001923,882.5486
5.900094509,24.87935,-10.43239,-16.32878,0.8817882,0.5892806,4.042863,11.46033,27.03086,-8.001923,882.5486
5.920111656,-77.25298,1932.144,-692.5549,13.27921,-6.563686,-15.75973,25.72378,26.47736,-25.29159,882.5486
5.940128803,-15.19789,1934.565,-424.2344,-0.1153014,-1.213254,-15.82814,25.72378,26.47736,-25.29159,882.5486
5.960146427,-108.0343,-215.2498,-42.23432,-1.119282,-0.2704976,-2.32177,21.08723,21.21585,-35.98308,882.5416
5.980163574,-369.6137,-69.49162,18.29321,-2.71959,1.805924,1.256479,21.08723,21.21585,-35.98308,882.5416
6.000180721,-125.7643,146.6061,15.61123,0.02621419,-1.521961,0.3777126,21.08723,21.21585,-35.98308,882.5398
6.020197868,-419.11,-156.604,31.15455,0.4377206,0.7980004,2.462991,-46.74821,24.43225,-2.993077,882.5398
6.040215015,237.2703,293.6636,-3.284578,0.5721912,-3.997945,-8.663302,-46.74821,24.43225,-2.993077,882.5416
6.060232639,-21.23102,-35.7688,17.19604,-1.735256,-0.3779503,-1.71144,-21.13284,20.65993,16.81804,882.5416
6.080249786,-367.028,-107.7029,-25.2281,3.432071,-2.003441,1.815429,-21.13284,20.65993,16.81804,882.5383
6.100266933,-49.30356,72.25052,-1.15118,-0.9281459,-1.286054,-2.029109,-21.13284,20.65993,16.81804,882.5383
6.120284081,-144.6024,-150.8162,8.906266,-0.1176114,2.223169,3.595881,-21.87774,23.19491,13.39729,882.5383
6.140301228,147.5736,180.447,0.9822176,0.3031997,-1.475416,-0.7829581,-21.87774,23.19491,13.39729,882.5383
6.160319328,228.8978,-195.1696,-19.55935,0.294768,-0.2565635,0.1015467,-8.963106,38.07736,13.98804,882.5402
6.180335999,-334.5846,-253.0477,-1.334043,-0.813795,1.137137,4.544259,-8.963106,38.07736,13.98804,882.5402
6.200353146,-41.79292,439.7761,-18.706,-1.613802,-2.32896,-5.076178,-8.963106,38.07736,13.98804,882.5436
6.220370293,74.74504,-163.5139,-9.928587,0.8723986,-0.2599997,3.083101,-19.73158,22.04071,17.26965,882.5436
6.240387440,-158.0231,177.3759,-29.00726,2.690214,0.8420781,7.585336,-19.73158,22.04071,17.26965,882.5424
6.260405541,281.78,30.79095,15.55028,-2.187041,-1.799164,-0.9525519,-11.50938,33.77824,13.95373,882.5424
6.280422688,201.1946,-91.81601,13.05115,0.4262938,0.8091003,3.859248,-11.50938,33.77824,13.95373,882.5459
6.300439835,144.003,17.26638,2.262256,-1.285248,-0.2613198,0.3996705,-11.50938,33.77824,13.95373,882.5459
6.320456982,180.5711,-85.08326,13.7826,-0.1658437,-0.09484036,-0.2603508,-17.52887,25.99522,13.00827,882.5459
6.340474129,202.0565,5.041125,-0.1759125,0.142283,-0.2142402,2.142112,-17.52887,25.99522,13.00827,882.5459
6.360491753,155.6383,1934.565,-539.255,15.89333,-2.150665,-13.33309,-7.559119,43.46453,6.800048,882.5478
6.380508900,-8.795382,1934.565,-515.0562,4.646741,-3.578081,-15.83341,-7.559119,43.46453,6.800048,882.5478
6.400526047,146.1577,27.24739,-31.93306,-7.671904,-0.3265015,-11.15151,-12.96745,27.88227,-37.51324,882.5389
6.420543194,-304.9114,274.3512,-2.248356,0.1355029,-0.4624003,-2.302679,-12.96745,27.88227,-37.51324,882.5389
6.440560341,104.726,-108.1164,-7.917098,1.368911,-0.5688264,1.285335,-12.96745,27.88227,-37.51324,882.5356
6.460577965,-18.39915,55.71394,-6.088471,-0.5416247,-0.4499517,-0.4823056,-2.466546,15.82664,-21.71569,882.5356
6.480595112,-79.96173,-48.52559,8.540541,0.5745043,0.5013044,0.6584474,-2.466546,15.82664,-21.71569,882.5356
6.500612259,-12.36601,-0.4513835,3.725157,-0.5435027,-0.603401,-2.514593,11.4735,29.19646,-14.34022,882.5356
6.520629406,-106.6799,-11.7317,-8.709502,0.2971012,0.6587698,0.3642183,11.4735,29.19646,-14.34022,882.5374
6.540646553,170.4749,221.5522,-12.12294,-0.8088044,-1.201132,-2.577831,11.4735,29.19646,-14.34022,882.5374
6.560663700,-120.6546,-6.239187,11.22253,0.8991401,0.7845773,0.783997,14.37523,26.99343,-11.7079,882.5374
6.580681324,-73.9286,37.16935,1.957485,-0.303284,-0.9819327,-4.520962,14.37523,26.99343,-11.7079,882.5374
6.600698471,-47.82606,257.224,-6.515151,0.7460498,0.3094884,-1.688626,14.32593,32.01022,-11.32165,882.5392
6.620715618,39.16187,-186.9604,1.957485,0.9131589,0.4163145,0.766979,14.32593,32.01022,-11.32165,882.5392
6.640732765,43.71751,26.9521,13.96547,0.4051825,0.06993552,-1.758788,14.32593,32.01022,-11.32165,882.5409
6.660749912,-81.74704,64.92718,15.916,-0.3438322,-0.8366361,-0.4863628,15.83044,27.99804,-9.142064,882.5409
6.680767536,-121.7012,64.33658,-0.9073631,0.5132915,-0.01656654,-2.191083,15.83044,27.99804,-9.142064,882.5409
6.700784683,191.283,-56.26235,-6.819922,-0.5708365,0.1201232,-0.9917053,15.00877,38.42585,-12.10688,882.5409
6.720801830,51.59752,80.99128,-1.882631,0.7861871,-0.187167,-0.1326442,15.00877,38.42585,-12.10688,882.5409
6.740818977,-105.0793,-46.22228,0.9822176,-0.6240283,-0.6952366,-2.549896,15.00877,38.42585,-12.10688,882.5409
6.760836124,119.7473,116.1906,-3.89412,-0.270436,-0.8182426,-2.231963,12.96034,25.17173,-8.802107,882.5377
6.780854225,163.272,-100.5568,-14.01252,0.9473868,0.2907591,0.8452727,12.96034,25.17173,-8.802107,882.5377
6.800871372,19.76966,1934.565,-353.6494,16.01519,-0.08504255,-14.13111,24.68706,25.06963,-36.37595,882.5395
6.820888042,-20.43071,1934.565,-647.3878,8.728069,-6.087032,-15.84192,24.68706,25.06963,-36.37595,882.5395
6.840905189,-69.12672,606.9136,-63.44639,-5.93234,-0.3220137,-11.21533,24.68706,25.06963,-36.37595,882.5306
6.860922337,-315.808,241.3961,4.700425,0.1969369,1.176971,1.624788,37.21862,14.15814,-57.12986,882.5306
6.880940437,-344.7424,18.15227,32.73937,1.04885,-0.01215286,2.064864,37.21862,14.15814,-57.12986,882.5323
6.900957584,-252.5217,-88.98116,26.52203,-0.8117037,2.408432,1.845974,-37.66455,18.87021,1.364775,882.5323
6.920974731,-305.4655,117.7261,23.35241,1.171978,-1.13086,0.4138654,-37.66455,18.87021,1.364775,882.5323
6.940991878,197.3161,-18.40539,24.20577,-1.766761,-0.5053027,-2.675435,-37.66455,18.87021,1.364775,882.5323
6.961009026,-343.5111,-369.1581,-9.68477,-0.8511065,0.9110568,3.186657,-21.12513,20.29576,16.00854,882.5323
6.981026173,-211.4594,350.2423,-10.47717,-0.8829325,-1.062542,-1.154619,-21.12513,20.29576,16.00854,882.5323
7.001043797,195.4693,-104.1003,5.614738,0.03855541,-0.284661,1.871639,-21.91409,26.80393,13.84206,882.5323
7.021060944,-394.1772,-101.6198,64.74033,1.781225,-1.623204,1.802021,-21.91409,26.80393,13.84206,882.5323
7.041078091,36.69937,15.61272,2.871798,-0.9368093,0.5492424,-0.562662,-21.91409,26.80393,13.84206,882.5323
7.061095238,-30.40385,-131.7991,-3.528395,-1.612364,1.765369,2.373532,-10.41206,34.48969,14.83622,882.5309
7.081112385,-35.69823,312.3853,-2.187402,-0.2193718,-1.327002,0.01577053,-10.41206,34.48969,14.83622,882.5309
7.101130009,221.1409,-18.52351,-1.638814,0.502543,0.960122,2.085284,-20.12832,24.92354,17.27386,882.5309
7.121147156,-530.8461,-255.6463,14.4531,2.085817,-1.914857,1.932411,-20.12832,24.92354,17.27386,882.5309
7.141164303,17.43028,412.727,-16.08496,-1.609982,-3.907681,-9.674958,-20.12832,24.92354,17.27386,882.5345
7.161181450,386.6211,128.1796,7.748136,-0.01468511,1.050177,2.123125,-12.53757,32.02372,13.50445,882.5345
7.181198597,137.1079,120.9744,-0.5416378,0.2565386,0.03111894,-0.431959,-12.53757,32.02372,13.50445,882.5345
7.201216221,155.6383,-30.68971,-2.30931,-0.7333526,-0.5608026,-1.534572,-16.86394,27.08313,13.45252,882.5345
7.221233368,251.9837,-23.36636,16.09886,-0.3502197,-0.2699262,2.45661,-16.86394,27.08313,13.45252,882.5363
7.241250515,185.7424,1934.565,-279.651,15.99608,2.647859,0.1346281,-6.389391,39.85326,1.70051,882.5363
7.261267662,-20.6154,1934.565,-720.9595,15.15411,-5.931159,-15.82084,-6.389391,39.85326,1.70051,882.5363
7.281284809,-95.35237,1256.92,-124.4616,-8.199764,-3.017569,-15.85386,-6.389391,39.85326,1.70051,882.5363
7.301301956,-207.5194,158.477,-8.892365,0.7940924,0.2125405,0.7523726,-0.9304624,21.63239,-42.95821,882.5309
7.321319580,-202.5944,-211.6472,-1.699768,-0.2167852,1.813812,1.361173,-0.9304624,21.63239,-42.95821,882.5309
7.341336727,-14.70539,148.2007,-4.076982,-0.03466698,0.02091268,-1.75182,-0.1953503,8.925294,-19.59922,882.5327
7.361353874,56.83033,-139.5359,4.212791,0.8658383,0.7496128,1.281215,-0.1953503,8.925294,-19.59922,882.5327
7.381371021,-63.95546,63.98223,-1.943585,-1.073098,-0.1965699,-1.749012,-0.1953503,8.925294,-19.59922,882.533
7.401388168,8.319016,-101.0293,4.456608,0.1516612,1.178192,0.2250811,11.15627,29.93466,-13.90568,882.533
7.421406269,39.03875,322.7207,-19.80317,-0.6713155,-1.096857,-3.609935,11.15627,29.93466,-13.90568,882.5349
7.441423416,57.07658,-197.0005,-2.73599,1.21074,0.8675985,0.9179943,14.36888,27.6666,-11.70614,882.5349
7.461440086,-177.7847,146.7833,-2.065493,-0.6683607,-0.8138683,-3.833679,14.36888,27.6666,-11.70614,882.5366
7.481457233,22.23216,42.77997,-0.2368667,0.4796601,1.216327,0.1621286,14.36888,27.6666,-11.70614,882.5366
7.501474380,123.9335,-19.4094,-8.587594,-0.5617922,-0.2771013,-0.4983267,13.62933,33.0561,-9.583506,882.5383
7.521491527,89.08913,-115.0853,0.3117212,-1.780632,-1.108975,0.4133848,13.62933,33.0561,-9.583506,882.5383
7.541509628,-151.8668,73.07735,7.930999,0.2026031,0.225328,-2.08856,16.20463,27.99473,-10.00951,882.5386
7.561526775,-119.7312,104.0834,-8.709502,0.4483262,-0.2947565,-0.3611312,16.20463,27.99473,-10.00951,882.5386
7.581543922,53.62908,16.02614,-5.357021,-0.9224969,-1.871184,-1.421833,16.20463,27.99473,-10.00951,882.5405
7.601561069,-71.2814,17.97509,1.957485,0.685423,0.8043559,0.4641801,13.21657,38.8231,-11.68643,882.5405
7.621578216,-77.25298,4.982066,-4.930341,-0.5052459,-0.1766676,-2.93705,13.21657,38.8231,-11.68643,882.5458
7.641595840,89.76631,50.51673,4.639471,0.193865,-0.6311559,-1.934802,14.39242,23.74045,-9.166357,882.5458
7.661612987,68.28097,-32.8749,-4.076982,0.202444,-0.1430507,-0.0243666,14.39242,23.74045,-9.166357,882.5475
7.681630135,506.8528,1188.234,-153.7196,6.5583,1.006309,1.191267,14.39242,23.74045,-9.166357,882.5475
7.701647282,88.966,1934.565,-594.9062,16.01923,-2.547929,-15.7878,28.69868,23.95662,-35.90773,882.5493
7.721664429,-118.8693,1874.797,-249.2958,-3.916059,-2.463878,-15.61127,28.69868,23.95662,-35.90773,882.5493
7.741682053,-259.1089,-84.78796,0.250767,1.80415,1.534007,5.78977,42.10509,15.06046,-27.72614,882.5443
7.761699200,-199.27,-121.1684,43.77208,1.87089,-2.206629,1.204195,42.10509,15.06046,-27.72614,882.5443
7.781716347,-274.8689,-101.3245,20.18279,-1.305328,1.30414,1.795247,42.10509,15.06046,-27.72614,882.5478
7.801733494,-50.90419,-144.615,29.32593,-0.6622583,-0.7473018,-0.3435783,-29.72171,16.50872,6.094238,882.5478
7.821750641,463.8206,462.1005,2.445119,-1.37042,0.04118235,-0.1256406,-29.72171,16.50872,6.094238,882.5496
7.841767788,58.67721,-168.2386,-10.23336,0.4546461,1.967546,3.432675,-19.69561,19.1707,15.5829,882.5496
7.861785412,266.574,289.2341,-36.07795,0.2861132,1.613938,2.781868,-19.69561,19.1707,15.5829,882.5531
7.881802559,158.778,-159.3207,12.19779,-0.4154831,0.144174,2.792225,-19.69561,19.1707,15.5829,882.5531
7.901819706,-12.24289,40.83102,2.079393,-0.3838204,-1.410238,-0.1477393,-23.72421,29.34471,13.83273,882.5531
7.921836853,-363.9499,177.1988,-22.91184,-1.331841,-1.396955,-4.043893,-23.72421,29.34471,13.83273,882.5531
7.941854000,235.7928,-38.42646,-22.78993,0.9439544,0.02743619,2.29194,-11.1299,31.99208,15.25849,882.5531
7.961871147,-279.9786,65.16341,20.67043,3.225541,-1.274476,2.35227,-11.1299,31.99208,15.25849,882.5549
7.981888771,143.0795,-98.90311,18.59798,-0.1859699,-0.4222844,-1.196016,-19.76564,25.65135,17.27906,882.5549
8.001905918,-263.2951,-87.44563,-4.137937,-0.3226904,0.979372,3.079628,-19.76564,25.65135,17.27906,882.5517
8.021923065,-13.78195,448.635,0.06790435,-0.724152,-0.08683968,-3.882418,-19.76564,25.65135,17.27906,882.5517
8.041940212,432.1774,4.804888,9.150084,1.12677,-0.2505799,0.8142743,-13.27136,31.67105,13.12375,882.5517
8.061957359,33.74437,-115.7941,11.58825,1.10929,-0.8765579,3.247313,-13.27136,31.67105,13.12375,882.5517
8.081974506,125.1648,-64.05817,4.3347,-0.4557687,-0.4617364,0.4980929,-17.24906,27.75635,15.19245,882.5534
8.101992130,229.8212,-71.55869,11.46634,-0.4038306,-0.4236561,0.7758718,-17.24906,27.75635,15.19245,882.5534
8.122009277,417.1561,602.8976,-65.51883,3.564993,-1.133839,3.282034,-17.24906,27.75635,15.19245,882.5552
8.142026424,172.0139,1934.388,-450.7495,11.65075,-4.884536,-15.7942,-5.331828,39.47238,0.4027634,882.5552
8.162043572,-156.1146,1934.565,-359.2572,-2.166172,-4.565988,-15.86207,-5.331828,39.47238,0.4027634,882.5517
8.182060719,6.841515,-381.3243,-15.1097,0.9235238,1.280475,5.457955,5.380433,8.199736,-47.66507,882.5517
8.202078819,31.83592,-82.07124,0.3117212,-0.3826157,-0.2238698,0.04712198,5.380433,8.199736,-47.66507,882.5498
8.222095966,-71.71234,80.40069,6.65096,0.5855874,-0.1006785,-2.511383,5.380433,8.199736,-47.66507,882.5498
8.239611149,95.06069,42.42562,5.431876,-1.4034,-0.7723284,-1.831588,1.235995,6.384564,-17.85171,882.5502
8.262130261,-46.41012,76.67996,-1.090226,0.4997614,-0.1371174,-1.820124,1.235995,6.384564,-17.85171,882.5502
8.279644966,-57.73763,-8.719675,0.3726754,-0.1807987,-0.09259307,-2.091378,11.82754,30.59581,-13.89791,882.552
8.299662113,-68.26484,-30.33535,14.33119,0.2373237,0.352674,-2.196584,11.82754,30.59581,-13.89791,882.552
8.319679260,148.0661,-88.15434,12.56352,-1.669764,-0.8048503,-1.816716,11.82754,30.59581,-13.89791,882.552
8.339696407,-147.4343,130.7782,-2.553127,0.380416,0.7620853,-1.149238,14.06199,28.0425,-12.57865,882.552
8.359714508,79.36224,-87.38657,12.56352,-0.5724277,0.006893718,-2.050184,14.06199,28.0425,-12.57865,882.5537
8.379731655,-57.42982,189.3059,-2.126448,-0.1901008,-0.589517,-0.8872542,12.89358,32.70203,-9.591029,882.5537
8.399748802,59.3544,-11.67264,-0.4197294,-0.06489415,-0.8200852,-1.207643,12.89358,32.70203,-9.591029,882.5555
8.419765949,29.43498,-169.0064,-6.637059,1.996075,1.818627,0.7311205,12.89358,32.70203,-9.591029,882.5555
8.439783096,34.29843,17.14826,-16.81642,0.2583801,0.1805945,-1.274716,16.20921,27.99798,-10.88024,882.554
8.459800720,96.96913,121.9784,-6.941831,-0.3044251,-1.06568,-1.827816,16.20921,27.99798,-10.88024,882.554
8.479817867,-36.00604,-61.63674,9.454854,-0.4230151,0.9176841,0.3250658,11.35734,39.58724,-10.8924,882.5558
8.499835014,-85.74861,218.304,-19.4984,-0.1008212,-0.8712232,-2.20677,11.35734,39.58724,-10.8924,882.5558
8.519852161,87.67319,-10.19616,-1.029272,0.6092551,0.3797272,-0.9575046,11.35734,39.58724,-10.8924,882.554
8.539869308,36.76093,-7.715668,-2.126448,-1.044826,-0.07206027,-1.774467,13.73089,23.0246,-10.91575,882.554
8.559886455,132.3061,107.5089,-28.27581,0.7522997,0.4056252,-0.007541431,13.73089,23.0246,-10.91575,882.554
8.579904079,-220.1397,1933.974,-798.6761,15.62014,-6.208028,-15.82221,31.50787,23.14968,-29.91377,882.554
8.599921226,23.83279,1934.565,-543.0951,-0.3306313,-0.3242359,-15.82143,31.50787,23.14968,-29.91377,882.5487
8.619938373,-74.4211,-368.8037,-34.06646,-1.002063,0.5876177,0.03700401,31.50787,23.14968,-29.91377,882.5487
8.639955521,-505.7285,-147.9223,37.98143,-3.354529,1.759153,0.4942455,7.289896,17.78201,-18.20238,882.5437
8.659972668,-165.5337,206.5512,25.18104,0.3911017,0.01379475,-0.1350661,7.289896,17.78201,-18.20238,882.5437
8.679989815,-551.0386,-304.3701,49.25796,-0.1319437,2.484609,4.372435,-39.55433,22.13856,3.471436,882.5455
8.700007439,301.0491,429.8542,-18.52313,0.8577275,-0.1165175,4.648567,-39.55433,22.13856,3.471436,882.5455
8.720024586,113.2217,23.64478,7.687181,-0.8567609,0.5904897,-0.9162022,-39.55433,22.13856,3.471436,882.5472
8.740041733,-304.973,-78.40957,-12.42771,3.642025,-4.468068,-1.206421,-18.95546,18.85021,15.96183,882.5472
8.760058880,48.45782,10.59269,5.431876,-1.381909,-2.488592,-2.654953,-18.95546,18.85021,15.96183,882.5491
8.780076027,3.824948,-21.24023,9.028174,-0.320079,1.503662,1.310949,-23.37252,31.48169,13.40623,882.5491
8.800093174,-117.2687,89.43675,29.99642,-0.01110468,-1.918503,-1.265855,-23.37252,31.48169,13.40623,882.5508
8.820110798,236.039,-104.3366,-12.67153,-0.3546194,0.1753117,0.4727535,-23.37252,31.48169,13.40623,882.5508
8.840127945,-21.84665,83.70801,1.774622,0.841028,-0.7972903,1.886232,-11.79366,30.53537,15.24864,882.5508
8.860145092,-74.66734,153.0435,8.418633,-1.414396,-1.160791,-3.00639,-11.79366,30.53537,15.24864,882.5526
8.880162239,191.6524,-80.47664,-3.284578,-1.803105,0.9741763,0.5595606,-20.46287,27.49767,17.71319,882.5526
8.900179386,-271.9754,220.371,18.11035,1.321099,-0.7498512,0.9271541,-20.46287,27.49767,17.71319,882.5494
8.920196533,83.91787,27.83798,0.7384007,-0.7955914,-1.850349,-3.368711,-20.46287,27.49767,17.71319,882.5494
8.940214157,271.6837,-52.95503,14.02642,-1.835584,1.507294,2.854804,-13.25751,30.20231,13.11993,882.5511
8.960231304,17.79965,54.70993,-3.040761,1.211868,-0.01770998,2.677896,-13.25751,30.20231,13.11993,882.5511
8.980248451,112.6676,-99.67088,14.87978,-0.5329289,0.8062578,-0.05833043,-17.56282,28.12738,15.62603,882.5529
9.000265598,129.2895,21.51865,2.140347,0.03374735,0.4031025,3.799631,-17.56282,28.12738,15.62603,882.5529
9.020282745,-77.62235,1928.246,-665.8569,15.8679,-2.704697,-10.84537,-5.313855,36.5896,2.136726,882.5529
9.040299892,12.25902,1934.565,-587.165,2.909074,-5.12396,-15.85144,-5.313855,36.5896,2.136726,882.5529
9.060317993,148.3739,-2.754693,-41.62478,-6.212507,-0.7240071,-9.170132,-5.313855,36.5896,2.136726,882.5458
9.080335140,-282.9336,193.8535,0.6164923,-0.6758642,0.0899669,-0.6014316,7.855427,6.332362,-34.83511,882.5458
9.100351810,-126.3183,-123.2355,12.07589,0.7546635,-0.4251727,-1.00045,7.855427,6.332362,-34.83511,882.5428
9.120368958,47.78064,152.4529,-5.174158,-1.650625,-0.5283694,-0.8360628,-0.2293592,11.79669,-18.28563,882.5428
9.140386105,-51.88919,-101.5608,-4.747478,1.001733,0.9523489,1.533555,-0.2293592,11.79669,-18.28563,882.5428
9.160403252,-134.0752,39.59077,0.7993549,-0.4540922,-0.5671344,-3.344496,-0.2293592,11.79669,-18.28563,882.5428
9.180420399,6.903077,-78.64581,-0.7245005,0.007125123,0.652114,0.9053453,12.93642,29.8369,-12.58388,882.5445
9.200438499,129.0432,177.6712,-19.55935,-0.7598644,-2.013621,-2.459769,12.93642,29.8369,-12.58388,882.5445
9.220455647,-121.2702,-20.82682,6.407143,1.140937,1.257965,0.974643,14.06082,28.41131,-13.01306,882.5463
9.240472794,-75.28297,73.19547,-1.15118,-0.7310745,-1.150424,-3.460309,14.06082,28.41131,-13.01306,882.5463
9.260489941,-8.364444,43.48868,-4.016028,1.247718,0.4573749,-0.7206323,14.06082,28.41131,-13.01306,882.5481
9.280507088,222.1259,-93.11531,-6.698014,-0.6456916,0.8081293,-1.425866,12.89646,32.39604,-9.591826,882.5481
9.300523758,99.43164,9.706803,4.822333,1.184361,0.2121678,-0.6972483,12.89646,32.39604,-9.591826,882.5498
9.320541859,-214.7222,122.628,0.6164923,-0.132412,-0.7973785,-0.3341875,16.95268,27.98789,-11.68221,882.5498
9.340559006,-71.2814,88.96428,-0.05400409,0.3725609,-0.2449395,-1.637333,16.95268,27.98789,-11.68221,882.5484
9.360576153,139.5089,-134.693,3.847066,-0.9342945,0.8020757,-0.8059824,16.95268,27.98789,-11.68221,882.5484
9.380593300,-10.14976,178.7934,-9.379999,0.4573229,-0.7388791,-1.455653,10.67744,39.59763,-10.46305,882.5484
9.400610447,-67.58765,-28.0911,12.25875,0.2495875,-0.2842698,-2.189261,10.67744,39.59763,-10.46305,882.5484
9.420627594,98.32351,89.49581,-9.989541,-0.3167833,-0.07969787,-2.423096,15.1489,22.63066,-10.46875,882.5502
9.440645218,188.759,-160.0885,-9.867633,-0.05751797,-0.2715301,0.8506396,15.1489,22.63066,-10.46875,882.5502
9.460662365,69.08128,1934.565,-345.4206,16.00566,1.518265,-7.190008,15.1489,22.63066,-10.46875,882.552
9.480679512,-10.76538,1934.565,-710.963,13.34475,-4.807353,-15.81745,28.0328,21.43428,-45.25023,882.552
9.500696659,-151.3743,803.4037,-124.0958,-5.611469,-1.7157,-12.90811,28.0328,21.43428,-45.25023,882.5448
9.520713806,-186.0341,152.7482,3.664203,2.028071,0.9022401,2.032383,12.83633,22.08741,-49.67587,882.5448
9.540730953,-107.6649,16.79391,33.40986,1.931375,-1.326712,2.332488,12.83633,22.08741,-49.67587,882.5434
9.560748577,-168.9196,-163.7502,26.7049,-0.466462,0.9006623,1.539343,12.83633,22.08741,-49.67587,882.5434
9.580765724,234.3153,166.0956,-66.31123,1.599533,1.608686,6.835715,-37.02364,20.61875,5.169306,882.5452
9.600782871,-78.48422,242.4002,9.515808,-3.592116,-2.368004,-7.280616,-37.02364,20.61875,5.169306,882.5452
9.620800018,-191.8825,-58.2113,-12.73248,-0.9800705,2.702487,4.325311,-18.57238,18.11393,14.71931,882.5452
9.640817165,176.1386,171.1157,-19.37649,-0.7003736,-0.5432446,-0.9135267,-18.57238,18.11393,14.71931,882.5452
9.660834312,111.1285,24.64879,6.894777,-0.7602579,-1.399636,-0.4917939,-18.57238,18.11393,14.71931,882.5437
9.680851936,-721.9979,-246.4921,58.76682,3.65169,-0.412035,5.925591,-23.76057,32.95373,14.2775,882.5437
9.700869083,-23.38571,100.2446,0.3117212,-2.333531,-0.3717968,-3.349011,-23.76057,32.95373,14.2775,882.5455
9.720886230,8.996204,-19.35034,-0.2368667,0.07831243,0.194731,2.628904,-12.14652,28.7672,15.24074,882.5455
9.740903377,131.8136,176.7263,-15.04874,-1.453876,-0.4634097,1.798037,-12.14652,28.7672,15.24074,882.5441
9.760920525,171.3983,-48.34841,17.07413,-1.060971,-0.6603678,-0.9194453,-20.46287,27.49767,17.71319,882.5441
9.780937672,-281.0867,-67.89703,6.163326,0.4722043,0.2732205,3.02834,-20.46287,27.49767,17.71319,882.5458
9.800954819,103.8641,435.642,-15.65828,-1.611602,0.4084822,-0.6170661,-20.46287,27.49767,17.71319,882.5458
9.820972443,433.7165,-170.1285,12.62447,0.8324401,1.132971,2.804165,-12.8879,30.19575,13.12321,882.5458
9.840989590,153.6683,-11.84981,11.22253,-0.05093368,0.6868048,1.623365,-12.8879,30.19575,13.12321,882.5458
9.861006737,116.2998,-61.10521,17.74463,0.2491613,0.1305117,1.197419,-16.52253,28.84317,15.63725,882.5458
9.881023884,254.9387,15.96708,9.454854,0.585336,-0.7301483,1.898097,-16.52253,28.84317,15.63725,882.5475
9.901041031,466.4062,1117.481,-184.3796,7.900009,2.246158,5.641036,-16.52253,28.84317,15.63725,882.5475
9.921058178,184.3264,1934.565,-552.6039,15.93421,-0.8647159,-15.77605,-6.697855,34.11214,0.3761473,882.5494
9.941075802,17.36872,1868.123,-243.8709,-5.050183,-3.024706,-15.44733,-6.697855,34.11214,0.3761473,882.5494
9.961092949,-186.1572,-72.2674,6.590006,2.471959,1.738351,3.008802,-2.42032,19.06301,-36.1988,882.5422
9.981110096,60.3394,-151.7021,7.321456,-0.02664971,0.121118,-2.407517,-2.42032,19.06301,-36.1988,882.5422
10.001127243,15.02934,108.3948,-7.002785,0.4770353,-0.581113,-1.291961,-2.42032,19.06301,-36.1988,882.5441
10.021144390,36.82249,-114.4948,13.47783,-0.4810942,0.8024479,-0.9089698,-0.2755867,17.18531,-19.14233,882.5441
10.041161537,-54.90575,108.6901,6.346189,0.681317,-0.01513271,-2.516185,-0.2755867,17.18531,-19.14233,882.5458
10.061178684,25.1256,-106.6399,11.89302,-0.7773712,0.07255408,-1.551683,11.83623,29.18502,-13.03084,882.5458
10.081196785,-78.60735,196.9245,-0.1149583,0.4232157,-0.5012894,-3.795441,11.83623,29.18502,-13.03084,882.5461
10.101213932,173.9224,-275.1358,5.614738,0.2603226,0.7991761,1.197192,11.83623,29.18502,-13.03084,882.5461
10.121230602,-156.1146,198.6963,-15.59733,-0.3865105,-0.8061908,-0.7910838,14.37229,28.03866,-13.01128,882.5497
10.141247749,8.626828,-132.8031,3.725157,0.5664417,0.6478767,-0.4882415,14.37229,28.03866,-13.01128,882.5497
10.161264896,213.3224,174.3049,-6.21038,-1.047904,0.01807308,-0.8848007,12.89128,32.7004,-9.155664,882.5514
10.181282043,-7.010067,-190.7993,15.06264,0.1730593,-0.7826135,-0.3423263,12.89128,32.7004,-9.155664,882.5514
10.201299191,-172.4903,70.2425,0.3117212,-0.1295238,0.528147,-0.009177277,12.89128,32.7004,-9.155664,882.5532
10.221317291,-15.93664,-24.01602,-7.490418,-0.6739714,1.271339,-0.1568397,17.25952,28.35124,-12.11388,882.5532
10.241334438,-5.840377,98.88623,-18.0355,0.08690352,-1.484618,-0.9667847,17.25952,28.35124,-12.11388,882.5535
10.261351585,84.65662,-71.38152,2.262256,0.7097602,0.05057422,0.264282,9.94632,38.50757,-10.03712,882.5535
10.281368733,-117.9458,122.8052,-3.89412,-0.7862105,0.2462466,-2.05754,9.94632,38.50757,-10.03712,882.5553
10.301385403,45.81063,15.25837,-11.6353,-0.02816991,-0.6457883,-1.806599,9.94632,38.50757,-10.03712,882.5553
10.321403503,172.5064,-118.2155,-3.833166,0.2118606,0.223824,-0.4005443,15.88466,22.98473,-10.46123,882.557
10.341420651,280.4256,687.1751,-55.03471,4.835882,-3.604623,-1.676863,15.88466,22.98473,-10.46123,882.557
10.361437798,154.3455,1934.447,-567.6597,12.20616,-5.636169,-15.82097,31.32106,21.76259,-50.32025,882.5588
10.381454945,-62.7242,1934.565,-360.7201,-2.67405,-3.362716,-15.85363,31.32106,21.76259,-50.32025,882.5588
10.401472092,-91.16611,-204.0876,-2.73599,0.590803,0.03766357,3.343185,31.32106,21.76259,-50.32025,882.5503
10.421489239,-725.6301,-316.0638,56.51151,3.126489,-2.659976,1.551573,37.84832,13.74247,-47.36021,882.5503
10.441506386,11.82808,60.85209,-2.248356,-0.341823,0.1916929,-0.02999389,37.84832,13.74247,-47.36021,882.552
10.461523533,-480.3648,-179.4008,44.62544,1.082446,-1.548569,-0.8701147,-27.93985,16.47377,6.980835,882.552
10.481541157,430.0843,464.9353,-48.93929,0.5924416,-1.722879,1.146385,-27.93985,16.47377,6.980835,882.552
10.501558304,234.9309,-206.6271,7.504319,-1.125075,2.560173,3.879232,-27.93985,16.47377,6.980835,882.552
10.521575451,43.47125,207.6733,0.6774465,0.6099396,-1.538609,-3.059958,-18.57121,17.74512,15.15372,882.5537
10.541592598,248.844,-204.2648,15.85505,0.7230514,-1.128503,-1.040671,-18.57121,17.74512,15.15372,882.5537
10.561609745,-335.4464,-73.27142,13.11211,-1.721375,1.269672,2.747377,-24.87463,34.01701,13.39963,882.5556
10.581626892,294.8928,228.8756,-22.60707,0.05740133,2.458222,4.225436,-24.87463,34.01701,13.39963,882.5556
10.601644039,-45.24043,-40.96601,-13.22011,-0.6576856,-2.097078,-2.423436,-12.51496,28.40495,15.67186,882.5523
10.621661663,-285.827,-48.82088,36.88425,1.493903,-1.587552,1.302396,-12.51496,28.40495,15.67186,882.5523
10.641678810,12.68996,-232.7904,6.102372,-1.45578,-1.394205,-2.974146,-12.51496,28.40495,15.67186,882.554
10.661695957,98.93914,98.3547,-3.772212,-1.069696,3.008736,3.012059,-20.84001,28.54621,17.27725,882.554
10.681713104,423.2508,528.7192,-27.4834,0.488048,0.2876737,0.7670514,-20.84001,28.54621,17.27725,882.5559
10.701730251,446.3368,-203.6151,22.19428,-0.117002,0.02028828,0.9321083,-12.8879,30.19575,13.12321,882.5559
10.721747398,86.74975,-200.6622,17.25699,-0.1111353,0.789266,2.867568,-12.8879,30.19575,13.12321,882.5559
10.741764545,174.7227,-56.08517,12.9902,0.671842,0.2095668,3.29944,-12.8879,30.19575,13.12321,882.5559
10.761782169,223.6034,7.875968,6.955731,-0.8431509,-0.6288079,-0.3851716,-16.90907,29.94663,16.88073,882.5544
10.781799316,287.3206,304.058,-40.95428,1.049545,-0.2596464,1.237175,-16.90907,29.94663,16.88073,882.5544
10.801816463,-277.0236,1934.565,-631.4787,7.659824,-10.62746,-15.61896,-8.506905,32.386,-3.874144,882.5544
10.821833610,-89.93487,1934.565,-565.2215,-0.2004407,-1.669985,-15.83218,-8.506905,32.386,-3.874144,882.5544
10.841850758,122.3329,-485.5048,-3.650303,0.05272243,0.6000334,2.068389,-8.506905,32.386,-3.874144,882.5491
10.861867905,-140.5393,109.576,2.993707,-0.9143618,-0.6163059,-3.013421,3.346848,24.05709,-40.79875,882.5491
10.881885052,21.49341,-35.23726,4.944242,0.9944987,-0.1430422,-0.6654934,3.346848,24.05709,-40.79875,882.5491
10.901902676,84.28725,53.76499,8.418633,-1.364097,0.3298123,-1.554698,1.882815,16.40945,-18.25436,882.5491
10.921919823,-102.7399,24.88502,3.90802,0.5514848,-0.2077405,-0.03448171,1.882815,16.40945,-18.25436,882.5491
10.941936970,1.916508,-120.696,10.55203,-0.5911536,-0.3184353,-2.515758,1.882815,16.40945,-18.25436,882.5509
10.961954117,-165.4722,90.97229,11.03966,0.5333132,0.1331598,-1.868995,11.46545,29.56039,-13.46853,882.5509
10.981971264,260.4178,-130.4408,13.35592,-1.365038,-0.05477647,-1.723593,11.46545,29.56039,-13.46853,882.5526
11.001988411,-139.4312,118.3758,0.250767,-0.2378672,0.3448535,-0.01343647,15.10805,28.39274,-13.00376,882.5526
11.022005558,14.90621,-77.46461,8.357678,-0.07554653,-0.4380159,-2.816178,15.10805,28.39274,-13.00376,882.5544
11.042023182,-80.02329,238.8566,-13.03725,0.1950751,0.3378265,-1.171667,15.10805,28.39274,-13.00376,882.5544
11.062040329,111.4979,-94.47367,1.713668,0.7618663,-0.437692,-1.297647,12.89646,32.39604,-9.591826,882.5512
11.082057476,124.7339,-101.8561,8.23577,-0.1085984,1.761508,0.006897242,12.89646,32.39604,-9.591826,882.5512
11.102074623,40.82406,68.6479,-3.406486,-0.6439805,-0.03735105,-1.437694,17.62795,28.71349,-12.545,882.553
11.122091770,34.23687,131.605,-14.25634,-0.1704392,-0.8432829,-2.460383,17.62795,28.71349,-12.545,882.553
11.139606953,184.819,-109.711,9.759625,0.5211129,0.3913591,0.4216169,17.62795,28.71349,-12.545,882.5547
11.159624100,-72.2664,155.3468,-13.58584,-0.3863414,0.3101627,-1.327273,9.589991,37.10659,-10.04407,882.5547
11.179641247,39.40812,-85.55573,0.7384007,0.5371266,-0.9383784,-2.673546,9.589991,37.10659,-10.04407,882.5565
11.199658394,133.722,86.72002,-5.661792,0.1125444,-0.4114829,-1.93516,15.52159,22.99593,-11.70841,882.5565
11.219676018,116.546,-23.07107,-7.490418,0.7025325,0.3060086,1.237918,15.52159,22.99593,-11.70841,882.5553
11.239693165,-79.16142,1928.187,-607.7066,15.99734,-2.343852,-13.946,15.52159,22.99593,-11.70841,882.5553
11.259710312,-2.57756,1934.565,-692.311,5.468654,-5.642624,-15.84804,35.55135,20.58071,-32.87009,882.5518
11.279727459,-26.40228,45.67387,-76.12486,-3.676142,0.4820046,-6.468823,35.55135,20.58071,-32.87009,882.5518
11.299744606,-377.9246,25.0622,16.76936,-1.907689,0.9286296,1.414464,18.11606,17.57853,-15.12073,882.5483
11.319761753,-181.54,139.1646,-2.553127,0.273852,-1.810223,0.7248778,18.11606,17.57853,-15.12073,882.5483
11.339778900,-420.2797,-290.1369,38.59097,-1.382862,1.770482,1.305616,18.11606,17.57853,-15.12073,882.5467
11.359796524,652.7561,181.7463,-69.48086,2.030913,-1.570758,-0.2558255,-34.80593,19.84016,6.493183,882.5467
11.379813671,4.071198,164.3829,-1.029272,-2.392686,0.3498504,-0.9498661,-34.80593,19.84016,6.493183,882.5467
11.399830818,-213.491,-292.9126,-15.59733,0.7258456,1.028038,4.996313,-17.14515,16.98724,14.72902,882.5467
11.419847965,-120.3468,247.8336,-16.51164,-1.317143,-2.347146,-4.632421,-17.14515,16.98724,14.72902,882.5467
11.439865112,161.9792,-18.75974,14.33119,-0.1576035,1.095267,2.261239,-17.14515,16.98724,14.72902,882.5467
11.459882259,116.8539,69.53379,30.48406,2.461797,-4.324219,-1.832477,-24.52097,36.15538,12.59996,882.5453
11.479899406,1.793383,-114.4948,4.456608,-1.352746,-0.7803639,-2.922374,-24.52097,36.15538,12.59996,882.5453
11.499916553,-218.1697,-180.2867,11.58825,-1.347369,1.018275,3.255622,-12.49821,26.63023,15.66724,882.547
11.519934177,206.6737,275.8867,-15.29256,0.9981294,1.024385,1.636078,-12.49821,26.63023,15.66724,882.547
11.539951324,148.3123,47.03223,-8.770456,-0.9657629,-0.6251818,-0.44445,-20.84576,28.91177,17.71357,882.547
11.559968471,-49.7345,70.00626,39.50528,1.243484,1.299318,5.17935,-20.84576,28.91177,17.71357,882.547
11.579985618,215.0462,53.82405,18.47608,-0.8733586,-0.06132054,-1.70816,-20.84576,28.91177,17.71357,882.5456
11.600002766,331.2148,116.3678,10.18631,-0.8515016,1.3694,1.52854,-13.25083,29.52937,13.05598,882.5456
11.620019913,161.4252,80.10539,-4.016028,0.2660397,1.015789,0.750674,-13.25083,29.52937,13.05598,882.5456
11.640037060,200.7637,-52.60068,7.687181,0.02648155,-1.079792,1.077059,-16.53717,29.9417,16.44865,882.5456
11.660055160,317.0554,31.67684,-1.029272,-0.7176635,1.045565,2.248033,-16.53717,29.9417,16.44865,882.5456
11.680071831,53.69064,1934.565,-335.1193,15.98879,5.528594,4.244157,-16.53717,29.9417,16.44865,882.5456
11.700088978,-41.73136,1934.565,-765.2733,12.93296,-6.220671,-15.83039,-7.758524,32.37939,-5.609034,882.537
11.720106125,-34.52854,734.3635,-101.7866,-8.90596,-2.46597,-15.47265,-7.758524,32.37939,-5.609034,882.537
11.740123272,-190.6512,56.36359,-10.23336,0.7488961,0.2424417,2.173322,14.01869,9.490463,-41.17801,882.5353
11.760140419,-219.2163,-82.13029,17.74463,0.6171579,0.2188227,-1.742424,14.01869,9.490463,-41.17801,882.5353
11.780157566,77.39223,182.396,-11.81817,-0.1728371,-0.3245693,-1.212559,14.01869,9.490463,-41.17801,882.5353
11.800174713,59.60065,-143.2566,5.919509,-0.1065659,0.1357606,1.117645,3.313314,14.23776,-17.00346,882.5353
11.820192814,-210.1666,79.21951,0.4945839,0.349594,0.3040272,-1.623194,3.313314,14.23776,-17.00346,882.5353
11.840209961,-50.53481,-132.8622,15.06264,-0.6819705,0.4075924,-1.041835,11.83277,29.55221,-13.02989,882.5388
11.860226631,71.72848,255.9838,-28.76344,-0.3540207,-1.103716,-2.435071,11.83277,29.55221,-13.02989,882.5388
11.880243778,139.2626,-188.2007,-2.918852,0.7490519,1.127089,0.9849422,11.83277,29.55221,-13.02989,882.5388
11.900260925,-184.064,201.1178,-14.56111,-0.1199438,-0.9218271,-2.533832,14.36994,28.77629,-13.88009,882.5388
11.920278072,-8.364444,-68.01514,7.016685,0.2922233,1.00029,-0.7223898,14.36994,28.77629,-13.88009,882.5391
11.940295219,120.0551,102.5479,-5.113204,-0.5504308,-1.259447,-1.135925,12.89717,31.65726,-8.412037,882.5391
11.960312366,159.8861,-169.5379,1.469851,-0.4988444,0.08923324,0.9856403,12.89717,31.65726,-8.412037,882.5377
11.980330467,-229.9282,144.5981,-0.8464089,-0.6088963,0.444279,-0.4490139,12.89717,31.65726,-8.412037,882.5377
12.000347614,-130.6893,76.9162,-1.699768,0.5196579,-1.016906,-1.062098,18.36254,29.43637,-12.97189,882.5411
12.020364761,114.022,34.39356,5.614738,-0.4134291,-0.2594918,-2.40217,18.36254,29.43637,-12.97189,882.5411
12.040381432,-106.8646,43.96115,-3.223624,0.380103,0.4279092,-1.056833,8.476581,37.123,-9.183195,882.5411
12.060398579,-2.208185,-55.55364,0.8603091,-0.1084665,-0.5315,-1.770144,8.476581,37.123,-9.183195,882.5411
12.080415726,22.97091,114.3597,5.370921,-0.2889083,-0.5475089,-2.097887,8.476581,37.123,-9.183195,882.543
12.100432873,176.0155,-33.46549,-7.124693,-0.1434955,0.4093034,-0.5107095,17.01036,22.6074,-13.00233,882.543
12.120450020,376.2786,1470.36,-195.2294,11.21987,3.835727,2.233104,17.01036,22.6074,-13.00233,882.5414
12.140468121,143.0795,1934.565,-671.8304,16.01921,-2.524119,-15.78712,31.31547,17.81577,-42.24512,882.5414
12.160485268,-150.3278,1611.216,-252.2216,-5.31521,-3.933072,-13.85751,31.31547,17.81577,-42.24512,882.5361
12.180502415,-208.9969,38.23241,-7.063739,1.586746,-0.009986191,4.334235,31.31547,17.81577,-42.24512,882.5361
12.200519562,-263.9723,-182.7672,65.77655,1.923812,-1.416283,2.594537,-2.139131,26.26335,-32.32062,882.5361
12.220536232,-126.6262,-184.0075,30.60597,-0.4419352,1.377284,0.7032284,-2.139131,26.26335,-32.32062,882.5361
12.240553379,204.519,-11.25922,4.395654,0.8781049,-1.966869,-1.780032,-35.92862,21.32857,6.487161,882.5347
12.260570526,80.77818,271.9298,16.09886,-2.314283,-0.7613053,-3.641081,-35.92862,21.32857,6.487161,882.5347
12.280588627,2.409009,-193.8113,6.102372,-0.5963091,2.939806,3.665115,-18.1878,17.00907,13.84899,882.5347
12.300605774,379.9108,432.689,-38.57707,0.6839178,2.642851,4.56896,-18.1878,17.00907,13.84899,882.5347
12.320622921,196.0849,-165.1676,3.786111,0.007392608,-0.3554421,1.40717,-18.1878,17.00907,13.84899,882.5364
12.340640068,-150.3893,32.14931,23.35241,0.2319818,-0.5845609,3.854852,-24.91137,38.36504,12.60242,882.5364
12.360657215,61.3244,16.97109,-2.126448,-0.9665762,-1.174961,-0.6016695,-24.91137,38.36504,12.60242,882.535
12.380674362,198.6705,17.44356,-15.35351,-0.1153306,1.091597,3.306794,-13.22822,25.91059,15.22339,882.535
12.400691509,-37.48354,68.58884,13.84356,-0.7438812,-1.182017,0.8023872,-13.22822,25.91059,15.22339,882.535
12.420708180,316.7476,-273.5412,25.18104,0.1996024,-1.177071,-1.43107,-13.22822,25.91059,15.22339,882.535
12.440725327,-301.3408,-140.717,-18.706,-1.456239,3.320543,6.886603,-21.60172,30.6996,17.71163,882.535
12.460743427,-145.4643,427.9052,-27.54436,-0.5058473,-2.891178,-6.279008,-21.60172,30.6996,17.71163,882.535
12.480760574,444.059,16.3805,12.68543,-0.7176776,-0.264785,-0.1160671,-13.61043,29.17339,11.80784,882.5367
12.500777721,91.24381,-58.92001,9.82058,1.248899,-0.01207941,4.848685,-13.61043,29.17339,11.80784,882.5367
12.520794868,153.853,-31.87089,12.62447,-0.6864951,-1.224527,-1.00029,-13.61043,29.17339,11.80784,882.5353
12.540812015,84.77975,-7.53849,12.01493,-0.2085476,-0.5599777,-0.1846174,-16.536,29.57289,16.88306,882.5353
12.560829162,559.4888,756.806,-118.4271,3.883712,0.3197176,2.188699,-16.536,29.57289,16.88306,882.5388
12.580846310,258.0784,1934.506,-475.4359,9.982978,-3.560778,-15.81723,-5.583296,31.9851,-8.576193,882.5388
12.600862980,18.84622,1934.152,-364.3164,-4.522006,-4.537959,-15.86892,-5.583296,31.9851,-8.576193,882.5335
12.620881081,-54.22857,-276.0217,0.8603091,2.146347,1.658021,5.228998,-5.583296,31.9851,-8.576193,882.5335
12.640898228,-127.3033,-45.57263,18.0494,-0.0909861,-0.6904442,-3.635261,19.18476,-3.948071,-39.05327,882.537
12.660915375,24.6331,119.557,-2.126448,-0.08156367,-0.122877,-0.8371676,19.18476,-3.948071,-39.05327,882.537
12.680932522,128.0582,-96.36357,10.0644,-0.5064648,0.6527488,-0.8387848,2.90964,17.85496,-16.99734,882.5356
12.700949669,-89.62705,25.12126,12.19779,-0.1620445,-0.145615,-2.207225,2.90964,17.85496,-16.99734,882.5356
12.720966816,28.0806,-35.11914,11.95398,-0.3421479,0.2651057,-1.053588,2.90964,17.85496,-16.99734,882.5374
12.740983963,-69.74234,77.50679,1.835577,0.1517863,-0.5073285,-3.232513,12.9497,28.42936,-12.58754,882.5374
12.761001110,233.3303,-221.6282,11.28348,-0.2929267,1.053817,0.5753878,12.9497,28.42936,-12.58754,882.5361
12.781017780,-203.7641,192.436,-5.661792,-0.09966904,0.05016762,-1.775445,14.36302,29.51065,-13.87818,882.5361
12.801035881,67.66534,-157.4899,10.0644,0.2052266,-0.109057,-0.7526124,14.36302,29.51065,-13.87818,882.538
12.821053028,141.2326,199.0507,-16.69451,-0.3434029,-1.056062,-0.6925358,14.36302,29.51065,-13.87818,882.538
12.841070175,15.64496,-90.87106,11.89302,0.06166344,-0.2202682,-1.199879,13.25985,32.38507,-8.40684,882.538
12.861087322,-199.0238,-9.13309,0.7993549,0.263223,0.5946032,0.125893,13.25985,32.38507,-8.40684,882.538
12.881104469,92.65975,12.83694,0.1898128,-0.007011903,0.3598157,-0.9923736,18.00294,29.08039,-14.22002,882.538
12.901121616,79.23911,145.4249,-15.35351,-0.2170201,-0.6142867,-0.4218185,18.00294,29.08039,-14.22002,882.5364
12.921138763,0.6236937,-59.98308,-2.918852,0.2669818,0.3728766,-0.0005753324,18.00294,29.08039,-14.22002,882.5364
12.941155910,-100.6468,169.4029,-11.14767,-0.4859539,-0.2716222,-1.40196,8.856583,36.01489,-9.182782,882.54
12.961172581,-19.44571,-30.45347,1.59176,0.4624895,0.01807443,-2.240709,8.856583,36.01489,-9.182782,882.54
12.981190681,103.9257,-12.79476,-8.892365,-0.7549286,-0.2147331,-1.725017,18.41798,23.31501,-12.55247,882.5417
13.001207829,146.3423,329.5125,-40.64951,4.456976,-1.798309,-0.3914872,18.41798,23.31501,-12.55247,882.5417
13.021224976,18.78465,1934.388,-636.1113,10.09598,-7.686471,-15.82256,18.41798,23.31501,-12.55247,882.5453
13.041242123,-71.40453,1934.565,-492.4422,-2.799798,-4.905676,-15.86679,33.19275,17.4789,-58.83624,882.5453
13.061259270,-95.04456,-241.8855,-16.5726,1.31246,0.2886249,4.196747,33.19275,17.4789,-58.83624,882.535
13.081276417,-711.4707,-391.6597,61.81453,1.83834,-0.8573505,3.384936,17.25169,16.61795,-47.9096,882.535
13.101293564,-85.25611,117.7261,-6.576105,-0.749171,0.3471867,0.8686613,17.25169,16.61795,-47.9096,882.5367
13.121310711,-498.7104,-218.3799,52.91521,0.7436829,0.6639623,1.313956,-27.22561,17.9215,9.105853,882.5367
13.141327858,-178.154,622.5643,-62.95875,0.2544808,-1.809435,-1.090233,-27.22561,17.9215,9.105853,882.5367
13.161345482,251.245,-309.272,19.26848,-0.4439255,0.6907119,2.476845,-27.22561,17.9215,9.105853,882.5367
13.181362629,180.7558,55.12335,20.42661,1.057408,-2.514997,2.417609,-18.17858,16.27633,13.41172,882.5353
13.201379776,70.12785,-0.6876204,8.479587,0.2142248,-0.1592419,-0.8868235,-18.17858,16.27633,13.41172,882.5353
13.221396923,-312.3605,-254.1698,12.07589,-0.00327539,1.433655,4.611472,-25.97768,40.89596,11.72892,882.5388
13.241414070,-6.086628,433.0434,-10.47717,-0.8675436,0.6600582,-0.1098246,-25.97768,40.89596,11.72892,882.5388
13.261431217,38.60781,-137.2916,-9.623816,0.2108213,-1.227202,-0.1289765,-25.97768,40.89596,11.72892,882.5374
13.281448364,-132.6593,-95.24145,19.75611,2.422168,-2.969716,-1.116516,-12.83611,23.76376,14.78573,882.5374
13.301465511,86.99599,39.05924,5.736647,-0.7509272,-1.445266,-0.4964917,-12.83611,23.76376,14.78573,882.5409
13.321482658,-47.94918,-234.444,-10.0505,0.7038192,-0.1598191,3.805679,-21.97485,31.81259,16.40512,882.5409
13.341500282,382.9889,416.684,-7.917098,1.249479,1.011256,4.861992,-21.97485,31.81259,16.40512,882.5444
13.361517429,206.2427,-137.705,28.47257,-0.202318,-1.239561,-0.4182566,-21.97485,31.81259,16.40512,882.5444
13.381534577,240.4715,52.52474,3.115615,-0.8436725,1.798719,2.041321,-13.24082,29.16683,11.81112,882.5413
13.401551724,11.33558,-28.20922,1.957485,0.1330686,-0.6780378,2.001039,-13.24082,29.16683,11.81112,882.5413
13.421568871,-9.47257,59.43467,19.63421,-0.5362762,-0.6109607,0.07340743,-16.90907,29.94663,16.88073,882.543
13.441586018,296.1856,215.5872,-29.49489,0.7614848,0.121162,-0.5466092,-16.90907,29.94663,16.88073,882.543
13.461603165,-353.4227,1930.963,-915.1597,15.35279,-6.771191,-15.82768,-16.90907,29.94663,16.88073,882.5466
13.481620312,106.142,1934.565,-693.3472,1.509505,-3.12232,-15.83907,-7.010167,29.47722,-2.189243,882.5466
13.501637459,166.2271,-422.4295,-40.89333,-1.450743,-0.1176576,-1.531609,-7.010167,29.47722,-2.189243,882.5361
13.521654129,-175.8762,154.0475,8.784358,-0.7075263,-0.4461007,-1.966898,7.862275,3.441686,-30.98652,882.5361
13.541672230,-50.59637,-86.50068,8.296724,-0.02136684,-0.5932798,-1.810975,7.862275,3.441686,-30.98652,882.538
13.561689377,30.48155,137.4519,-9.014274,-1.013794,-0.2922003,-0.1567996,7.862275,3.441686,-30.98652,882.538
13.581706524,-84.88673,-46.75381,7.199548,0.6497056,0.1463764,0.5571788,1.829715,21.79319,-17.80497,882.5397
13.601723671,-54.53638,58.9622,-6.637059,-0.3810945,-1.109374,-1.852081,1.829715,21.79319,-17.80497,882.5397
13.621740818,-100.5852,-110.715,18.11035,0.7929007,0.7187235,-1.094248,12.94853,28.79817,-13.02195,882.54
13.641757965,36.45312,121.9784,-19.74222,-1.00557,-1.670601,-1.164854,12.94853,28.79817,-13.02195,882.54
13.661775112,-23.50884,52.46568,-9.197136,0.8017851,0.7194204,0.07830164,12.94853,28.79817,-13.02195,882.5419
13.681792259,-52.87419,34.74792,2.932752,-1.263486,-0.9850855,-3.033951,15.47877,28.75661,-13.87024,882.5419
13.701808929,-56.81419,49.09931,3.359432,0.9877195,1.203001,-1.278066,15.47877,28.75661,-13.87024,882.5439
13.721826076,20.93934,27.89704,-6.088471,-0.9219536,0.4269912,-1.884946,12.89914,31.65865,-8.785206,882.5439
13.741844177,210.5521,-112.0733,21.46283,0.7369737,0.1377076,-0.08082403,12.89914,31.65865,-8.785206,882.5456
13.761861324,-166.3956,114.596,-5.357021,-0.6642869,-0.5479844,-1.671946,12.89914,31.65865,-8.785206,882.5456
13.781878471,-15.75195,40.06325,0.06790435,-0.03427874,-0.110604,-1.986735,18.73673,29.43306,-13.83933,882.5475
13.801895618,95.67632,-65.23936,6.590006,-0.4164832,0.07892746,-0.4659547,18.73673,29.43306,-13.83933,882.5475
13.821912765,-73.00516,170.5251,-5.357021,-0.3899874,0.2296505,-1.909137,8.853119,36.38208,-9.181826,882.5478
13.841929913,-6.948504,17.97509,14.87978,-0.1411589,0.01960599,-2.630934,8.853119,36.38208,-9.181826,882.5478
13.861947060,194.4843,41.71691,-4.62557,0.006728827,-0.2794276,-2.654707,17.00344,23.34177,-13.00041,882.5478
13.881964207,106.5729,39.4136,-10.8429,0.0008846909,0.06335469,-0.01166832,17.00344,23.34177,-13.00041,882.5478
13.901980877,1.239319,1934.565,-516.1533,15.99677,3.10141,-0.7761482,17.00344,23.34177,-13.00041,882.5478
13.921998024,31.89749,1934.565,-806.1735,11.15722,-6.125838,-15.83494,37.76924,18.73812,-41.31423,882.5495
13.942016125,-62.53951,522.2227,-113.8555,-6.55298,-0.2872156,-11.72756,37.76924,18.73812,-41.31423,882.5495
13.962033272,-310.8214,125.6991,19.93898,-0.4142529,1.934284,2.11282,30.12886,16.30167,-24.84423,882.5392
13.982050419,-24.74009,130.8963,11.5273,-0.01904128,0.009232416,-0.06870076,30.12886,16.30167,-24.84423,882.5392
14.002067566,-430.9916,-176.7432,25.12009,1.026451,0.7120483,2.300273,30.12886,16.30167,-24.84423,882.5409
14.022084713,155.1458,27.83798,-52.23081,3.585155,-1.420626,1.72216,-30.11748,18.34492,7.774999,882.5409
14.039599895,-49.7345,548.6813,-18.58409,-1.185208,0.9357858,-1.165066,-30.11748,18.34492,7.774999,882.5427
14.059616566,196.8852,-350.4954,-7.551373,-0.4809913,0.9949515,3.019857,-17.44165,16.26159,13.85365,882.5427
14.079633713,-86.30267,315.2793,-13.95156,-0.5567554,-0.3810852,-2.627772,-17.44165,16.26159,13.85365,882.5395
14.099650860,125.3495,-101.738,12.50257,-0.03141719,0.5891609,2.969537,-17.44165,16.26159,13.85365,882.5395
14.119668007,-39.33042,95.99232,25.48581,0.8375936,-3.517846,-1.951459,-25.66387,39.7857,12.59952,882.5395
14.139685154,7.087765,12.48259,-0.6635463,-1.340011,0.2323014,-1.184885,-25.66387,39.7857,12.59952,882.5395
14.159702301,37.19187,-89.57176,-3.284578,0.08097439,-0.4597229,1.25483,-13.21553,24.81067,14.78516,882.543
14.179719448,22.41685,160.8394,-7.002785,0.8480605,-1.713857,2.803825,-13.21553,24.81067,14.78516,882.543
14.199737549,104.1104,-91.1073,32.31269,-0.4635558,-0.773765,1.526933,-13.21553,24.81067,14.78516,882.5419
14.219754696,-221.6788,-166.2306,-13.7687,0.4384342,1.688705,4.951643,-21.59943,30.70123,17.27626,882.5419
14.239771366,338.1098,562.7964,-45.09917,-0.009776641,-0.6976827,-2.86306,-21.59943,30.70123,17.27626,882.5436
14.259788513,460.6809,-98.66688,18.29321,-0.6228992,0.6471723,0.5053248,-12.50389,29.15209,12.25305,882.5436
14.279805660,47.22657,-17.46044,11.16157,0.6040843,0.6185935,2.434951,-12.50389,29.15209,12.25305,882.5453
14.299822807,192.0218,-25.78779,19.81707,-0.02510977,-0.4635797,1.693146,-12.50389,29.15209,12.25305,882.5453
14.319839954,185.7424,64.98624,3.176569,0.8563503,-0.2111988,0.4857534,-16.91542,30.6198,16.88248,882.5421
14.339857102,452.493,568.8204,-73.26002,4.293542,-0.3818147,2.068657,-16.91542,30.6198,16.88248,882.5421
14.359874249,211.7834,1934.447,-492.5641,7.595608,-6.074714,-15.84523,-8.772858,29.15613,-6.06215,882.5421
14.379891396,-114.8677,1934.565,-429.7812,-3.772953,-4.860424,-15.86934,-8.772858,29.15613,-6.06215,882.5421
14.399908543,-47.64137,-383.2142,8.66245,0.9685506,1.322217,4.544868,-8.772858,29.15613,-6.06215,882.5318
14.419926643,-103.6633,1.970045,15.48932,-0.229066,-0.4767846,-1.084031,5.581744,20.02552,-36.93333,882.5318
14.439943314,41.93219,-13.32629,-2.187402,0.8141976,-0.291249,-1.017037,5.581744,20.02552,-36.93333,882.5336
14.459960461,81.20911,84.77107,6.041418,-1.122932,0.3392164,-1.322,2.218359,20.01353,-18.24167,882.5336
14.479977608,-44.25542,-20.82682,8.66245,0.1963425,-0.3184842,-1.774227,2.218359,20.01353,-18.24167,882.5353
14.499994755,-36.0676,21.81394,1.835577,-0.2840869,-0.1021877,-1.948284,2.218359,20.01353,-18.24167,882.5353
14.520011902,-73.37453,-1.927864,15.30646,0.6843486,0.3852378,-2.890172,12.58121,28.80635,-13.4606,882.5339
14.540029049,165.7345,-24.72473,6.346189,-0.7226086,-0.3538574,-1.261316,12.58121,28.80635,-13.4606,882.5339
14.560046196,-201.9172,88.25557,-4.503662,-0.01598298,0.09193125,-1.066603,15.47381,29.49237,-14.2415,882.5356
14.580063343,41.80906,-101.6789,17.01318,-0.009368146,0.06213855,-0.851361,15.47381,29.49237,-14.2415,882.5356
14.600080490,88.84287,207.4961,-26.38623,0.3412288,-0.7956902,-2.026064,15.47381,29.49237,-14.2415,882.5374
14.620097637,13.98277,-95.53674,-3.650303,-0.299267,-1.263093,0.1629263,13.26725,32.02067,-9.154136,882.5374
14.640115261,5.0562,-65.82995,6.65096,0.04525339,2.084961,0.6950939,13.26725,32.02067,-9.154136,882.5359
14.660132408,72.52879,41.00819,0.9212633,0.3814095,0.07233562,-2.741493,18.37058,29.07244,-13.84357,882.5359
14.680149555,20.20059,46.20541,-5.174158,-0.1140474,-1.042656,0.02037442,18.37058,29.07244,-13.84357,882.5395
14.700166702,-64.44796,-36.53657,2.201302,0.8234104,-0.2806102,-1.793285,18.37058,29.07244,-13.84357,882.5395
14.720183849,-50.47325,162.6702,-17.85264,-0.1958488,-0.2946394,-1.615781,8.8577,36.38533,-10.05255,882.5413
14.740200996,78.31567,-39.66671,8.23577,0.439465,0.125863,-1.858226,8.8577,36.38533,-10.05255,882.5413
14.760218143,94.93757,38.58677,-5.905609,-0.5715267,-0.1885469,-1.4281,15.89807,22.99425,-13.01122,882.5397
14.780235290,70.8666,128.9474,-31.68924,1.718896,0.1235608,2.002299,15.89807,22.99425,-13.01122,882.5397
14.800252438,-355.1465,1934.565,-913.2091,15.32224,-9.331616,-15.84898,15.89807,22.99425,-13.01122,882.5397
14.820269585,-14.0282,1934.565,-668.5999,1.055824,-2.421671,-15.83463,34.45755,18.76283,-32.44936,882.5397
14.840286732,-82.97829,-437.4306,-35.04172,0.807524,-0.164568,2.072056,34.45755,18.76283,-32.44936,882.5397
14.860303879,-566.8602,-220.9195,44.56448,-1.242639,0.48556,0.6166217,-0.3211618,21.52708,-18.26028,882.5363
14.880321503,-138.6924,103.4929,16.83031,-0.2736025,-1.244712,0.3535025,-0.3211618,21.52708,-18.26028,882.5363
14.900338650,-522.3505,-195.9374,36.88425,0.2034638,1.111228,3.603097,-37.02476,20.24831,6.039077,882.538
14.920355797,378.8026,389.812,-10.59908,1.714632,1.753991,10.26592,-37.02476,20.24831,6.039077,882.538
14.940372944,104.3566,-123.2355,23.77909,-1.666557,0.07186408,-1.022453,-37.02476,20.24831,6.039077,882.5366
14.960390091,-479.4413,-138.1775,17.50081,4.019719,-3.11086,1.235051,-17.45199,16.6239,15.1607,882.5366
14.980407238,-108.2805,67.76202,2.32321,-0.1480647,-1.155643,2.429109,-17.45199,16.6239,15.1607,882.5383
15.000424385,156.2539,-59.45155,7.07764,0.02937431,1.543517,1.705584,-24.89522,36.89793,12.16323,882.5383
15.020441532,217.6318,266.6145,3.48134,-0.1111923,-2.495012,-3.849309,-24.89522,36.89793,12.16323,882.5369
15.040458679,-58.16857,-105.8721,-9.379999,-0.8744457,-0.9894501,0.7190446,-24.89522,36.89793,12.16323,882.5369
15.060475826,-214.9069,63.50976,3.664203,0.5068644,-0.6919966,1.684641,-12.869,27.00559,15.22954,882.5386
15.080492973,-157.6537,202.7123,-19.4984,-0.3362547,-1.272304,-0.3802812,-12.869,27.00559,15.22954,882.5386
15.100510120,40.70094,-102.6238,8.540541,-0.4670147,0.7493722,2.118791,-21.20967,29.29201,15.96979,882.5403
15.120527267,329.7372,37.64182,58.94968,0.5554413,-1.504592,-0.3819403,-21.20967,29.29201,15.96979,882.5403
15.140544891,95.06069,11.53764,8.23577,-1.847208,-1.249324,-3.136449,-21.20967,29.29201,15.96979,882.5389
15.160562038,522.8591,96.93727,-0.7854547,-0.6753051,2.954344,1.836895,-13.98233,29.17832,12.23992,882.5389
15.180579186,102.8791,73.54982,1.104126,0.2497979,0.1138373,1.083751,-13.98233,29.17832,12.23992,882.5407
15.200596333,250.8756,-97.78099,16.28172,-0.729993,1.160053,-0.6497396,-15.79566,29.93021,16.01986,882.5407
15.220613480,213.5687,-39.19423,2.993707,0.05016846,0.3436275,3.594347,-15.79566,29.93021,16.01986,882.5374
15.240630627,-38.77636,1934.565,-655.1899,16.01603,-1.266078,-13.99112,-15.79566,29.93021,16.01986,882.5374
15.260647774,-16.79852,1934.565,-806.7221,7.017779,-7.641508,-15.85994,-7.738122,30.91529,-6.856758,882.5374
15.280664921,79.36224,145.0115,-52.65749,-7.687972,-1.146047,-10.6105,-7.738122,30.91529,-6.856758,882.5374
15.300682068,-215.5225,164.6782,7.07764,0.04972064,0.5069417,0.1167955,11.43207,15.96076,-41.12151,882.5339
15.320699215,-74.11328,-177.9244,17.62272,0.1490383,-0.1323751,-1.582964,11.43207,15.96076,-41.12151,882.5339
15.340716362,-39.82292,228.9346,-15.1097,-0.310116,-0.09640081,0.2314957,11.43207,15.96076,-41.12151,882.5374
15.360733509,17.18403,-223.1047,11.95398,0.410186,0.4972163,1.157943,2.93874,14.98008,-17.378,882.5374
15.380750656,-121.4549,88.13745,-9.25809,-0.183181,-0.6230204,-3.006448,2.93874,14.98008,-17.378,882.5378
15.400768280,-50.7195,-89.57176,5.49283,0.450444,0.5150071,0.1610639,11.46485,29.868,-13.9031,882.5378
15.420785427,140.1861,191.9045,-31.50638,-0.4194634,-2.048182,-1.379273,11.46485,29.868,-13.9031,882.5395
15.440802574,-42.83949,-83.54771,9.089129,0.849717,1.110094,0.5981298,11.46485,29.868,-13.9031,882.5395
15.460819721,-175.3222,139.9915,-4.991295,-0.0236839,-1.280353,-3.914835,15.10687,28.76155,-13.43816,882.5398
15.480836868,-1.777247,29.846,-0.1759125,0.2421355,0.9730219,-0.9189104,15.10687,28.76155,-13.43816,882.5398
15.500854015,219.4171,3.918999,-3.345532,-0.6181499,-0.2264379,-1.238207,12.90797,31.66492,-10.46447,882.5452
15.520871162,110.3282,-21.00399,1.226034,0.03659197,-0.2952973,-0.1913509,12.90797,31.66492,-10.46447,882.5452
15.540888309,-170.6434,96.99633,1.408897,-0.4545643,0.2959626,-1.489922,12.90797,31.66492,-10.46447,882.5439
15.560905456,-126.7493,52.11133,-1.943585,0.8782206,-0.7514708,-0.264583,17.63717,27.98075,-12.98228,882.5439
15.580922604,123.0717,4.391473,10.43012,-0.8251236,-0.5027882,-2.090432,17.63717,27.98075,-12.98228,882.5457
15.600939751,-32.68166,60.67491,-18.21836,0.788383,0.01167216,-0.06577054,9.586526,37.47377,-10.04312,882.5457
15.620956898,-145.0949,1.438512,5.553784,-0.418653,-0.210098,-2.152006,9.586526,37.47377,-10.04312,882.5492
15.640973568,48.70407,14.90401,-5.47893,0.2836411,-0.6985339,-2.1694,15.88924,22.98798,-11.33196,882.5492
15.660990715,145.2958,-45.45451,-16.14592,-0.5560676,0.1711359,-0.7033026,15.88924,22.98798,-11.33196,882.551
15.681008816,367.5982,1397.776,-191.9379,8.426946,3.115906,0.3945101,15.88924,22.98798,-11.33196,882.551
15.701025963,227.9743,1934.565,-681.2783,15.02552,-3.038259,-15.7934,28.75059,19.29452,-49.04368,882.546
15.721043110,-118.069,1803.572,-313.7853,-5.377621,-2.987417,-14.25375,28.75059,19.29452,-49.04368,882.546
15.741060257,-160.9781,-12.7357,8.784358,1.53788,0.636095,5.105175,11.05302,21.75169,-49.6305,882.5442
15.761077404,-213.3678,-81.95312,54.25621,1.186985,-2.418115,0.6380432,11.05302,21.75169,-49.6305,882.5442
15.781094551,-239.0394,-137.2916,25.60772,-2.88983,0.3711643,-2.562368,11.05302,21.75169,-49.6305,882.546
15.801111698,-576.9565,-229.6602,54.98766,0.2537473,-0.2474272,0.8962213,-35.91364,20.23027,5.613563,882.546
15.821128368,112.2367,528.6602,-34.73695,-0.1303982,-0.6002683,-0.1112829,-35.91364,20.23027,5.613563,882.546
15.841145515,143.5105,-432.2924,-1.57786,-0.1229462,0.2405086,2.086624,-18.94199,18.12049,14.71602,882.5478
15.861162662,-74.54422,392.2925,0.4336297,-0.7116994,0.3625842,-1.49739,-18.94199,18.12049,14.71602,882.5478
15.881179810,194.9768,-124.5939,14.81883,0.7209557,-0.05526438,2.042264,-18.94199,18.12049,14.71602,882.5462
15.901196957,-254.1838,-75.51566,-0.4197294,-0.5594974,1.988492,4.637585,-24.13312,34.00552,12.97083,882.5462
15.921214104,279.6253,200.8815,-23.82615,0.2613824,0.249636,4.018377,-24.13312,34.00552,12.97083,882.5462
15.941231251,157.3005,-133.689,-0.4806836,-0.2257337,0.08968943,0.243919,-12.5181,28.77237,15.61062,882.5462
15.961248398,-6.456003,54.35558,29.87452,1.265998,-2.192391,-2.293317,-12.5181,28.77237,15.61062,882.5481
15.981266499,73.8216,-51.53761,20.48757,0.1059957,-1.561555,-0.1059724,-12.5181,28.77237,15.61062,882.5481
16.001283169,-128.473,-112.9592,-1.212134,-0.362663,1.972463,3.517703,-20.47157,28.90846,16.84613,882.5484
16.021300316,346.7285,423.1214,-21.02226,0.5786043,0.8407647,1.913502,-20.47157,28.90846,16.84613,882.5484
16.041317463,412.662,20.98711,9.881534,-0.4470005,-1.909438,0.3242868,-13.62796,30.57791,12.62004,882.5501
16.061334610,34.29843,-2.695634,4.029929,0.732977,0.3153635,4.019856,-13.62796,30.57791,12.62004,882.5501
16.081351757,109.2817,-113.4907,19.69516,-1.065502,-1.393794,-0.692189,-13.62796,30.57791,12.62004,882.5537
16.101368904,167.2736,39.00018,1.774622,0.2549148,-1.464677,1.200168,-16.90103,29.5827,16.00905,882.5537
16.121386051,318.3482,364.6528,-41.92955,1.590625,-1.118008,-1.070828,-16.90103,29.5827,16.00905,882.5505
16.141403198,-282.7489,1934.565,-788.0701,6.862283,-12.23843,-15.79654,-6.332746,36.25864,-2.600343,882.5505
16.161420345,-155.8684,1934.565,-597.2225,-0.5002277,-3.732841,-15.85017,-6.332746,36.25864,-2.600343,882.5486
16.181437492,115.9304,-520.8223,-3.345532,0.1382063,0.5585877,3.386721,-6.332746,36.25864,-2.600343,882.5486
16.201454639,-76.82204,176.7263,7.138594,0.4719682,-0.5395373,-2.831799,8.969797,5.62215,-46.27158,882.5469
16.221471787,-9.718822,-83.7249,12.56352,0.1633401,-0.5456272,-1.808093,8.969797,5.62215,-46.27158,882.5469
16.241488934,-8.549132,105.678,-5.600838,-0.7042742,-0.7403568,-0.7789326,1.218078,8.528098,-18.2815,882.5455
16.261506081,-54.78263,-42.26531,13.23402,0.8135764,-0.3440959,-1.28174,1.218078,8.528098,-18.2815,882.5455
16.281523228,4.379011,155.6422,-5.905609,-0.2720814,-0.1260546,-1.333925,1.218078,8.528098,-18.2815,882.5472
16.301540375,-65.74077,-175.2076,25.72963,0.3994865,0.1784399,-1.981105,11.83852,29.18665,-13.46621,882.5472
16.321557522,48.15001,31.61778,7.138594,-1.7395,-1.054828,-1.352791,11.83852,29.18665,-13.46621,882.5508
16.341575146,-180.0625,50.87109,7.138594,0.6031243,0.5023314,-0.8202695,15.1138,28.02718,-13.44008,882.5508
16.361592293,61.3244,44.02021,-22.05848,-0.5548941,-1.285609,-1.062239,15.1138,28.02718,-13.44008,882.5493
16.381609440,-115.9143,56.71795,-5.417975,0.02701681,0.7792212,-0.7235684,15.1138,28.02718,-13.44008,882.5493
16.401626587,2.285883,6.281368,-11.57435,-0.2022489,-0.2676132,-2.427207,12.9068,32.03373,-10.89888,882.5511
16.421643734,113.8373,-125.8341,18.11035,0.684345,0.9042875,-0.3538735,12.9068,32.03373,-10.89888,882.5511
16.441660881,-14.82852,160.7803,-0.2368667,-0.7026091,-0.4809705,-1.551211,16.59229,27.2617,-12.12277,882.5546
16.461678028,80.96286,59.72997,-1.760722,-0.5542104,-0.1869343,-2.438709,16.59229,27.2617,-12.12277,882.5546
16.481695175,41.07031,-66.00713,0.6164923,-0.6610394,0.7640597,0.8506384,10.69876,37.82616,-11.3384,882.5514
16.501712322,-113.2671,152.3939,-3.46744,0.6055594,0.3240294,-1.515007,10.69876,37.82616,-11.3384,882.5514
16.521729469,65.2644,43.42962,1.469851,-0.2933053,-0.5951942,-2.480438,10.69876,37.82616,-11.3384,882.5531
16.541746616,135.4458,5.041125,0.4945839,0.4494562,-0.02869955,-1.930011,15.14197,23.36503,-10.46684,882.5531
16.561763763,103.4332,31.67684,-11.69626,0.3431498,0.1003993,-0.5678462,15.14197,23.36503,-10.46684,882.5549
16.581780910,-92.15112,1927.832,-736.5029,16.02003,-3.490089,-15.78449,28.71697,21.4269,-46.48811,882.5549
16.601798057,82.80974,1934.565,-786.4853,4.064901,-4.458792,-15.84246,28.71697,21.4269,-46.48811,882.5481
16.621815205,-71.7739,56.42265,-89.59575,-4.793019,-0.5377919,-6.923642,28.71697,21.4269,-46.48811,882.5481
16.641832352,-476.671,-108.4707,34.56799,-2.068883,2.664604,2.985432,41.52187,11.17981,-50.25762,882.5481
16.661849022,-58.96888,165.505,-6.515151,-0.5669405,-0.147657,2.12314,41.52187,11.17981,-50.25762,882.5481
16.681866169,-512.131,-242.8304,63.39934,-1.306699,3.10991,3.316063,-29.71536,15.83555,6.092484,882.5467
16.701884270,-62.66264,288.9388,15.97695,1.545109,-4.082681,-5.937768,-29.71536,15.83555,6.092484,882.5467
16.721901417,-66.72577,194.0897,14.94073,-2.479551,-1.628462,-4.618852,-29.71536,15.83555,6.092484,882.5484
16.741918564,-244.5185,-240.8815,-10.90385,2.167334,1.813592,5.556934,-20.00558,19.17477,15.95333,882.5484
16.761935711,-71.34296,70.71498,-18.21836,-1.684994,-1.630449,-0.7365925,-20.00558,19.17477,15.95333,882.5502
16.781952858,61.26284,7.521612,1.713668,-0.5286162,0.8273885,2.90866,-23.36251,31.11915,12.16137,882.5502
16.801970005,378.4333,252.8536,-8.892365,1.421534,-0.4387864,3.407923,-23.36251,31.11915,12.16137,882.5487
16.821987152,-212.506,-62.81792,16.64745,-0.6099452,1.930136,2.691934,-23.36251,31.11915,12.16137,882.5487
16.842003822,87.61163,-217.0216,4.761379,0.1321705,-0.4383391,1.760015,-11.81098,32.37129,15.25342,882.5487
16.862020969,83.54849,339.7298,-16.5726,0.7537899,0.1009838,3.517154,-11.81098,32.37129,15.25342,882.5505
16.882038116,224.1574,-98.37158,20.91425,-1.054842,-1.260489,-2.371323,-20.07829,26.39281,16.84287,882.5505
16.902055263,-406.9206,-163.2186,-20.77844,2.428487,-0.8637604,4.868849,-20.07829,26.39281,16.84287,882.554
16.919570446,43.96376,523.9354,-49.06119,-0.2761071,-0.8459932,-1.545705,-20.07829,26.39281,16.84287,882.554
16.939587593,496.5103,-117.8021,13.11211,1.091304,0.5166459,3.402282,-13.26182,30.93853,12.62428,882.5558
16.959604740,19.09247,28.19234,6.102372,-0.6020924,-1.205665,0.3625008,-13.26182,30.93853,12.62428,882.5558
16.979621887,61.8169,-7.53849,11.89302,0.06521922,-0.4159858,1.320848,-17.24683,28.49722,13.4529,882.5544
16.999639034,272.1147,73.84512,5.614738,0.07653544,-0.1450167,-0.6011161,-17.24683,28.49722,13.4529,882.5544
17.019656181,522.9822,729.9931,-109.223,3.925461,1.180661,5.131837,-17.24683,28.49722,13.4529,882.5561
17.039673328,306.8975,1934.506,-470.4986,5.964176,-3.281814,-15.827,-4.256626,41.58509,2.968183,882.5561
17.059690475,30.41998,1934.27,-441.6673,-4.032889,-4.955616,-15.87091,-4.256626,41.58509,2.968183,882.5508
17.079707623,-109.3271,-309.0949,11.16157,2.0872,1.734405,5.179209,3.850152,6.772205,-35.30508,882.5508
17.099724770,-187.2037,-34.70573,10.43012,-0.1030576,-0.519859,-1.806265,3.850152,6.772205,-35.30508,882.5478
17.119741917,46.05688,1.970045,2.018439,0.2858476,0.4321645,-1.12375,3.850152,6.772205,-35.30508,882.5478
17.139759064,103.0023,29.43258,8.296724,-0.3323308,0.3219036,-1.130387,-0.9222128,7.838248,-19.98182,882.5478
17.159776211,-48.68793,47.03223,7.504319,-0.5215074,-0.2592534,-1.102433,-0.9222128,7.838248,-19.98182,882.5478
17.179793358,-15.75195,-47.46252,13.53879,0.006926559,-0.05270313,-1.740226,11.47663,28.82904,-14.27898,882.5495
17.199810505,-32.1276,95.93327,-1.516905,0.1850261,-0.05222772,-3.149897,11.47663,28.82904,-14.27898,882.5495
17.219827652,271.0066,-173.0224,4.151837,-0.02956716,0.4212062,0.2714098,11.47663,28.82904,-14.27898,882.5495
17.239844799,-172.1825,188.0066,-17.91359,0.0832207,-0.2945697,-1.605762,13.70965,26.95238,-13.8909,882.5495
17.259861946,118.6392,-142.7251,7.991953,-0.4500276,0.4033678,-0.4382467,13.70965,26.95238,-13.8909,882.5481
17.279879570,-14.76695,177.0806,-14.01252,0.4743949,-0.7398935,-2.256613,13.28216,31.66162,-11.33191,882.5481
17.299896717,-92.70518,-114.3766,4.456608,-0.2984449,-1.632354,-1.931046,13.28216,31.66162,-11.33191,882.5498
17.319913864,-65.92546,-25.02002,-2.553127,0.1117953,1.534863,1.448744,13.28216,31.66162,-11.33191,882.5498
17.339931011,103.4948,59.31656,7.687181,-0.418383,0.02024868,-2.132706,15.47346,27.64391,-10.88776,882.5534
17.359948158,106.4498,95.75609,-27.23959,0.405461,-1.362772,-0.5430597,15.47346,27.64391,-10.88776,882.5534
17.379965305,-34.46698,-31.51653,7.504319,0.2691221,0.5135304,0.1556755,13.97594,37.40733,-12.98962,882.5519
17.399982452,-148.7887,176.7263,-25.41096,0.09153882,-0.3086126,-1.603438,13.97594,37.40733,-12.98962,882.5519
17.419999600,154.3455,-73.62577,-9.014274,0.005297163,-0.180671,-1.508914,13.35324,23.39509,-10.04734,882.5537
17.440016747,-78.23798,10.23834,0.4336297,-0.04972163,-0.2948047,-1.605681,13.35324,23.39509,-10.04734,882.5537
17.460033893,157.793,54.35558,-23.15565,1.029104,-0.4551743,0.4736236,13.35324,23.39509,-10.04734,882.5522
17.480050564,-389.8062,1934.565,-1055.659,15.95167,-8.091073,-15.83681,28.60226,23.56335,-28.63244,882.5522
17.500067711,-8.856945,1934.565,-726.994,1.927159,-2.851345,-15.83557,28.60226,23.56335,-28.63244,882.5469
17.520084858,-80.8236,-423.1973,-46.98875,-0.7766661,0.4564032,0.8955712,33.00644,13.34221,-16.30531,882.5469
17.540102005,-565.5058,-238.2829,52.67139,-1.172193,0.3998151,2.286248,33.00644,13.34221,-16.30531,882.5469
17.560119152,-86.36423,106.7411,-3.711257,-0.6895342,-0.002574989,0.6992696,33.00644,13.34221,-16.30531,882.5469
17.580136299,-574.8633,-259.5442,54.9267,-0.4776199,1.279881,2.440558,-34.39812,17.70447,3.070168,882.5487
17.600153446,17.36872,421.2906,-10.1724,2.380976,-0.3059761,5.382528,-34.39812,17.70447,3.070168,882.5487
17.620170593,236.3468,-38.19023,18.11035,-2.465636,-0.7442676,-3.376165,-20.0229,21.01069,15.95811,882.5455
17.640187740,-573.2012,-169.4789,26.76585,1.795514,0.12204,3.765399,-20.0229,21.01069,15.95811,882.5455
17.660204887,-40.74636,59.2575,0.7384007,-1.117444,-0.454147,-1.258019,-20.0229,21.01069,15.95811,882.5472
17.680222034,34.54468,-69.72786,10.36917,-0.3352046,1.22717,0.6578594,-21.91068,27.17599,12.53692,882.5472
17.700239181,338.5407,203.4801,26.64394,0.1440515,-1.414409,-3.479673,-21.91068,27.17599,12.53692,882.5491
17.720256329,120.9785,-179.4008,0.250767,-0.3967483,-0.9075528,0.09117821,-10.79266,35.90541,14.40125,882.5491
17.740273476,-201.3016,-68.96009,8.357678,0.7854379,-0.6600155,3.339925,-10.79266,35.90541,14.40125,882.5508
17.760290623,-332.4299,235.3721,7.382411,-0.591085,1.918471,1.209217,-10.79266,35.90541,14.40125,882.5508
17.780307770,345.4973,-17.87386,0.006950129,-0.9684222,0.1972241,0.8058879,-19.37588,24.24213,15.97258,882.5508
17.800325394,-93.62862,-3.581522,51.51327,1.105176,-0.8073232,3.786063,-19.37588,24.24213,15.97258,882.5494
17.820342064,105.3416,119.3798,3.054661,-2.672016,-2.214162,-4.700613,-12.18241,33.79352,13.07699,882.5494
17.840359211,478.9034,-98.96217,16.03791,0.9736934,1.562139,3.738621,-12.18241,33.79352,13.07699,882.5511
17.860376358,180.0786,164.6782,-10.96481,-0.551191,-0.7071235,-0.8893135,-12.18241,33.79352,13.07699,882.5511
17.880393982,226.7431,-83.31148,19.99993,-0.00785979,-0.3968,-1.386099,-17.90429,27.10658,12.13713,882.5497
17.900411129,180.8174,-2.22316,5.49283,-0.6581227,1.083368,2.295387,-17.90429,27.10658,12.13713,882.5497
17.920428276,428.5452,1934.565,-285.8683,13.1486,9.384092,4.381565,-7.202789,44.86552,6.806997,882.5514
17.940445423,127.5657,1934.565,-805.8078,16.02045,-3.958523,-15.80238,-7.202789,44.86552,6.806997,882.5514
17.960462570,-71.7739,1164.787,-208.8832,-8.036553,-4.288924,-14.90347,-7.202789,44.86552,6.806997,882.5461
17.980479717,-206.4113,-32.16619,31.58124,1.096321,0.7479765,2.708529,-15.08265,22.15844,-34.99739,882.5461
18.000496864,-201.3016,-127.9603,23.901,-0.319511,-0.3130423,-2.843897,-15.08265,22.15844,-34.99739,882.5446
18.020514011,141.048,135.2667,-22.48516,0.1668344,-0.4861196,-0.2509965,-2.751478,13.63062,-22.15953,882.5446
18.040531158,62.12472,-167.1165,7.016685,-0.6300514,0.2394802,-0.1831284,-2.751478,13.63062,-22.15953,882.5446
18.060548306,-185.3569,54.29652,2.445119,0.5711396,0.4951296,-0.6320109,-2.751478,13.63062,-22.15953,882.5446
18.080565453,-68.44952,-71.97211,5.919509,-0.9930394,-0.05661764,-1.351459,10.43399,28.85087,-15.15901,882.5464
18.100582600,7.45714,41.48067,-15.04874,0.2049518,-0.4338344,-1.946178,10.43399,28.85087,-15.15901,882.5464
18.120599270,184.6343,-40.84789,-0.9683173,0.009063667,0.1823024,-0.818425,14.07697,26.9442,-13.45225,882.5449
18.140616417,-135.368,112.4698,-10.53813,-0.1532886,0.213471,-1.184855,14.07697,26.9442,-13.45225,882.5449
18.160633564,23.21716,-109.711,22.31619,0.2795302,0.2742381,-1.45601,15.07286,31.63294,-12.12458,882.5467
18.180650711,289.5984,236.8486,-35.77317,-0.5508381,-0.3724204,-0.6005371,15.07286,31.63294,-12.12458,882.5467
18.200667858,107.0038,-297.1058,15.916,-0.1515493,-0.4513335,1.557596,15.07286,31.63294,-12.12458,882.5484
18.220685005,-262.9257,166.2137,-9.197136,0.1028684,0.3101221,-0.4639283,14.35004,28.02287,-8.782027,882.5484
18.240702152,61.3244,-36.41845,1.530806,-0.6647031,0.6111079,-2.572535,14.35004,28.02287,-8.782027,882.547
18.260719299,51.22814,108.4538,-11.87912,-0.1931447,-0.2038036,-0.2405613,17.19616,36.25359,-14.20794,882.547
18.280736446,-9.041633,-8.424379,19.02466,-0.1743265,0.4506633,-1.753995,17.19616,36.25359,-14.20794,882.547
18.300753594,38.48468,27.71987,-2.431219,-0.7569954,-0.5279284,-0.1565306,17.19616,36.25359,-14.20794,882.547
18.320770741,-84.14799,5.336421,-6.271334,-0.3696759,-0.3136543,-1.331907,11.1635,26.30497,-8.815104,882.5505
18.340787888,175.8308,-33.58361,-9.25809,-0.1476799,-0.4465436,-1.320262,11.1635,26.30497,-8.815104,882.5505
18.360805035,253.0303,425.6609,-41.32001,5.235433,-3.467258,0.5163967,24.99154,25.01686,-23.99589,882.5491
18.380822182,-0.05349468,1934.447,-728.5178,9.031691,-9.651923,-15.843,24.99154,25.01686,-23.99589,882.5491
18.400839329,-102.5552,1934.565,-547.301,-2.52089,-4.705911,-15.8643,24.99154,25.01686,-23.99589,882.5419
18.420856476,-58.78419,-406.8969,-3.406486,0.5327854,0.4204395,4.189698,16.10365,14.82318,-37.28875,882.5419
18.440873623,-674.2869,-261.8475,34.14132,1.228685,-1.216706,1.713384,16.10365,14.82318,-37.28875,882.5419
18.460890770,-391.5915,269.8627,-7.978052,1.96295,-0.04414609,2.400212,-45.98865,23.69429,-5.538414,882.5419
18.480907917,-438.9332,-132.9803,37.00616,-1.074617,0.8965597,1.660675,-45.98865,23.69429,-5.538414,882.5405
18.500925064,394.5011,446.5089,-69.84658,0.8085892,-2.232991,-3.154488,-45.98865,23.69429,-5.538414,882.5405
18.520942211,117.3464,-122.8812,10.36917,-1.925085,0.5264186,-0.5416658,-20.76094,20.655,16.38596,882.5422
18.540959358,-254.5532,-14.56654,79.18648,1.369115,-3.440008,-2.212031,-20.76094,20.655,16.38596,882.5422
18.560976505,49.01189,80.51881,20.3047,-0.7319185,-1.125476,-1.929601,-21.49236,22.46025,11.7194,882.5441
18.580993175,-164.364,-155.8953,12.19779,0.1495961,0.894385,3.017538,-21.49236,22.46025,11.7194,882.5441
18.601010322,497.1875,297.7387,-36.07795,-0.05540144,-1.905452,-1.844167,-21.49236,22.46025,11.7194,882.5446
18.621027470,196.2696,-141.0123,-10.29431,0.152177,-0.6200041,0.6725306,-9.37548,43.10535,13.1271,882.5446
18.641044617,-266.127,-2.164101,14.39215,2.374524,-2.791196,0.6158166,-9.37548,43.10535,13.1271,882.5464
18.661061764,29.61967,35.39757,0.250767,-0.4988371,-0.3885155,0.9096998,-18.9607,19.89381,15.09382,882.5464
18.681078911,24.20216,-13.14912,0.8603091,-0.0773214,-0.07531955,0.508228,-18.9607,19.89381,15.09382,882.5481
18.701096058,-231.1594,152.5711,32.80032,2.286869,-2.575686,-2.722911,-18.9607,19.89381,15.09382,882.5481
18.721113205,115.0685,189.6012,4.395654,-0.8722875,-0.3666646,-1.151239,-11.17907,38.42594,13.09841,882.5448
18.741130352,223.1724,-93.58778,16.28172,0.5963587,1.899594,4.336444,-11.17907,38.42594,13.09841,882.5448
18.761147499,27.40342,10.06116,-1.212134,0.6139708,-0.3198424,0.5261559,-17.52579,26.36705,11.76533,882.5448
18.781164646,214.4921,-37.89493,15.00169,-0.3911214,-0.6057976,0.07533582,-17.52579,26.36705,11.76533,882.5448
18.801181793,125.9035,23.29042,-5.539884,1.38128,-1.200199,2.861858,-17.52579,26.36705,11.76533,882.5448
18.821198940,-60.56951,1934.565,-747.2308,16.01923,-3.527014,-15.07607,-18.00806,39.29276,10.05423,882.5434
18.841216087,20.50841,1934.565,-832.9933,7.290108,-6.04333,-15.84589,-18.00806,39.29276,10.05423,882.5434
18.861233234,106.3266,-8.188142,-53.26703,-6.911896,-1.17225,-10.11415,-11.19265,27.16463,-34.07841,882.5363
18.881250381,-305.2192,117.6671,18.47608,0.1881503,0.610382,-0.4679489,-11.19265,27.16463,-34.07841,882.5363
18.901267529,43.28657,-45.27733,8.479587,-0.1633047,-0.2079089,-1.921742,-11.19265,27.16463,-34.07841,882.5363
18.921284676,-45.85605,150.1496,-16.20687,0.1697428,-0.4006417,-0.2923108,2.969176,16.049,-25.02526,882.5363
18.941301823,-58.84576,-236.5111,9.150084,0.1488872,0.2137728,-0.04282949,2.969176,16.049,-25.02526,882.5381
18.961318970,-43.82449,44.96516,-11.33053,0.1535638,-0.356851,-1.943763,9.707454,27.76406,-15.60381,882.5381
18.981336117,-59.64607,-67.07019,7.809091,-0.5487407,0.4412504,-0.06381639,9.707454,27.76406,-15.60381,882.5366
19.001353264,133.1064,157.2367,-35.28554,0.01831084,-1.164683,-2.303533,14.37346,27.66986,-12.57687,882.5366
19.021370411,-77.43766,-92.82001,20.06089,0.2199796,0.716482,0.235473,14.37346,27.66986,-12.57687,882.5384
19.041387558,-74.11328,125.0495,-3.89412,-0.5019015,-0.7825384,-3.264294,14.37346,27.66986,-12.57687,882.5384
19.061404228,4.132761,66.16742,13.90451,-0.1824318,0.501526,-1.132797,16.56164,31.24441,-13.41849,882.5402
19.081421375,200.4558,17.0892,-7.307556,-0.6013693,0.2348747,-0.4637695,16.56164,31.24441,-13.41849,882.5402
19.101438522,16.87621,-80.00417,3.115615,-0.7468781,-0.7784862,0.9806073,12.91855,29.14654,-7.98321,882.5419
19.121455669,-163.8715,46.85506,13.7826,0.1543181,-0.04154827,-1.982214,12.91855,29.14654,-7.98321,882.5419
19.141472817,-103.1708,44.02021,-30.89684,0.1884311,-0.1195302,-0.1783272,12.91855,29.14654,-7.98321,882.5405
19.161489964,57.13815,45.14234,-20.10794,-0.31235,-0.8662243,-0.2208005,19.44436,33.71003,-15.50087,882.5405
19.181507111,-36.68323,-10.49145,-0.297821,0.5318871,-0.1151645,-0.4767894,19.44436,33.71003,-15.50087,882.5422
19.201524258,-207.7041,80.34163,0.4945839,-0.810579,-0.2502414,-2.588319,9.653672,29.20446,-8.012211,882.5422
19.221541405,46.11845,-32.22524,-7.002785,-0.1657359,-0.3215248,-1.850223,9.653672,29.20446,-8.012211,882.5391
19.241558552,180.0171,-63.94005,-9.136182,-0.4561333,0.1589663,-0.05669665,9.653672,29.20446,-8.012211,882.5391
19.261575699,581.5898,878.2908,-61.61776,4.544281,-1.288462,-3.098237,21.33788,25.43737,-21.04187,882.5408
19.281592846,238.3168,1934.506,-647.5097,9.723863,-7.450434,-15.85022,21.33788,25.43737,-21.04187,882.5408
19.301609993,-52.87419,1933.974,-444.3493,-3.217551,-3.92592,-15.85993,39.0667,11.64429,-64.33514,882.5355
19.321627617,-151.4974,-277.0848,8.113861,1.932275,0.9386566,4.498693,39.0667,11.64429,-64.33514,882.5355
19.341644287,-580.0346,-191.508,58.523,1.44922,-2.214095,0.2690065,39.0667,11.64429,-64.33514,882.5305
19.361661911,-158.5156,85.06637,16.89127,-1.502074,1.098891,-0.7395273,-19.74481,12.52145,-21.44349,882.5305
19.381679058,-553.1318,-232.2589,58.64491,-0.2171411,-0.716657,-0.6603586,-19.74481,12.52145,-21.44349,882.5322
19.401696205,-296.8467,667.6856,-72.65047,1.361379,-1.646702,0.1584603,-21.84831,20.32026,12.95443,882.5322
19.421712875,316.4397,-523.7161,27.68016,-0.7737688,0.9539707,2.643259,-21.84831,20.32026,12.95443,882.5322
19.441730499,-225.6804,204.1298,2.74989,3.052078,-2.446434,0.2516094,-21.84831,20.32026,12.95443,882.5322
19.461747169,48.45782,-111.3056,10.18631,0.213533,-1.113649,0.8077636,-19.26881,16.00116,10.41572,882.5308
19.481764316,-293.8917,-76.69685,11.71016,-0.6742381,2.046688,3.24877,-19.26881,16.00116,10.41572,882.5308
19.501781464,-189.5431,279.6075,0.5555381,0.383933,1.887722,0.4480903,-9.833233,53.15292,11.90607,882.5325
19.521798134,235.9159,-150.9343,-3.89412,0.7492191,-0.9257209,1.081957,-9.833233,53.15292,11.90607,882.5325
19.541815281,-548.3299,-114.9672,20.42661,3.12018,-2.921968,0.456581,-9.833233,53.15292,11.90607,882.5311
19.561832428,-128.9655,57.89913,-1.760722,-0.1780332,-0.3378271,-0.9406916,-17.43413,15.21961,14.2863,882.5311
19.581849575,-53.79763,-38.83988,12.92924,-1.849079,0.8589183,0.6686178,-17.43413,15.21961,14.2863,882.5328
19.601866722,5.671825,249.6644,29.56974,1.818435,-0.3413069,2.066384,-15.88615,40.70885,13.93329,882.5328
19.621883869,265.5891,46.67788,14.02642,-0.1989449,-0.2752232,2.249282,-15.88615,40.70885,13.93329,882.5346
19.641901016,116.0535,-122.5268,9.759625,-0.3844754,0.8381051,3.768641,-15.88615,40.70885,13.93329,882.5346
19.661918163,61.38597,51.22544,-5.844655,0.0138779,-0.4195045,-0.320473,-13.94832,26.30692,10.92634,882.5314
19.681935310,78.99286,18.15227,9.515808,-0.04435349,0.7361759,1.810759,-13.94832,26.30692,10.92634,882.5314
19.701952457,273.0997,100.9533,-12.06198,0.8844893,0.2646005,1.150195,-19.45252,33.55203,13.88219,882.5331
19.721969604,-178.9544,1925.057,-917.354,16.01151,-0.3949089,-15.77289,-19.45252,33.55203,13.88219,882.5331
19.741986751,81.76318,1934.565,-794.836,1.612413,-6.273372,-15.86486,-4.716557,27.0107,-23.82045,882.5264
19.762003899,179.8939,-251.4531,-41.80764,-3.880171,-0.5527878,-5.535451,-4.716557,27.0107,-23.82045,882.5264
19.782021046,-242.1791,124.2226,11.10062,0.4986132,0.1328375,-0.2081566,-4.716557,27.0107,-23.82045,882.5245
19.799536228,-216.5691,-118.3336,12.44161,-0.5883673,-0.1955259,-2.895908,12.56131,1.522711,-30.94971,882.5245
19.819553375,15.02934,85.83414,-11.81817,0.3493381,-0.2111884,-1.032748,12.56131,1.522711,-30.94971,882.5245
19.839570522,-4.424438,-78.9411,5.980464,-0.286307,0.1698138,-0.2575549,12.56131,1.522711,-30.94971,882.5264
19.859587669,-44.37855,59.61185,-11.45244,0.1976761,0.06485081,-1.107733,7.212007,25.30441,-16.87668,882.5264
19.879604816,-76.26797,-126.3657,10.43012,-0.3766596,0.3032202,-0.4118012,7.212007,25.30441,-16.87668,882.5248
19.899621963,70.3741,187.0616,-47.53734,-0.06791445,-0.8370765,-1.53631,13.69356,27.68025,-12.14753,882.5248
19.919639111,102.8791,-136.4057,17.50081,0.02112389,0.2671053,-0.3292584,13.69356,27.68025,-12.14753,882.5266
19.939656258,-115.9143,159.1857,-7.36851,-0.1593039,-1.073363,-3.034745,16.94243,30.5065,-14.22566,882.5266
19.959672928,-31.69666,16.91203,15.67218,-0.2274327,0.6679986,-0.3923889,16.94243,30.5065,-14.22566,882.5272
19.979690075,232.5915,112.1746,-15.65828,-0.2920075,-0.02078275,-0.6751115,16.94243,30.5065,-14.22566,882.5272
19.999707222,14.72152,-141.8982,5.858555,-0.7559977,-1.515862,0.1256422,12.90064,31.29007,-8.412993,882.5308
20.019724369,-294.692,57.42666,15.61123,-0.05779068,0.5007361,-1.138709,12.90064,31.29007,-8.412993,882.5308
20.039741516,161.302,110.2256,-21.57084,-0.08106337,0.6468093,-2.235204,19.46686,31.56975,-15.94181,882.5325
20.059758663,20.07747,19.03816,-15.71924,-0.09059035,-1.677056,0.06688423,19.46686,31.56975,-15.94181,882.5325
20.079775810,-102.3705,-48.52559,23.41337,0.617398,-0.1355483,-0.4433663,19.46686,31.56975,-15.94181,882.5328
20.099792957,-189.1737,134.558,-12.79344,-0.1143295,-0.3136698,-2.345195,8.521961,32.10342,-8.8231,882.5328
20.119810104,103.4332,-76.34249,-15.59733,-0.3250829,-0.4705593,-0.0702123,8.521961,32.10342,-8.8231,882.5345
20.139827251,7.826516,-15.15713,2.567027,0.3080924,-0.06556319,-0.976591,19.16154,25.46122,-17.20493,882.5345
20.159844399,505.7447,688.7107,-70.15135,4.282561,-3.319891,-2.675731,19.16154,25.46122,-17.20493,882.5331
20.179861546,76.71504,1934.447,-744.3659,7.981879,-9.658145,-15.87374,19.16154,25.46122,-17.20493,882.5331
20.199878693,-24.80165,1934.565,-514.6904,-3.525534,-4.417875,-15.86493,43.24622,12.21298,-40.41209,882.5295
20.219895840,-243.8413,-378.1942,3.542295,1.744074,0.8046666,4.620695,43.24622,12.21298,-40.41209,882.5295
20.239912987,-414.8622,-143.6109,53.03712,2.401072,-2.119724,0.8291963,18.52328,15.75045,-18.97831,882.5262
20.259930134,-142.694,49.21743,4.639471,-0.7636694,0.142686,-0.7853253,18.52328,15.75045,-18.97831,882.5262
20.279947281,-622.8206,-153.4738,38.40811,-0.193214,0.1177575,2.494594,18.52328,15.75045,-18.97831,882.5298
20.299964428,339.7719,475.8022,-24.43569,0.8196996,0.1568959,1.876195,-28.36583,20.81443,9.91203,882.5298
20.319981575,258.3862,-274.0728,14.4531,-2.046082,0.5738321,0.4878788,-28.36583,20.81443,9.91203,882.5334
20.339998722,-132.7209,235.6083,-29.6168,2.482003,0.2323214,3.870312,-16.73466,14.11416,12.11263,882.5334
20.360015869,36.94562,7.226316,6.955731,-0.6851875,-2.20969,-2.23024,-16.73466,14.11416,12.11263,882.5338
20.380033016,2.162758,-69.13727,-1.760722,-0.2664518,0.6050287,1.661656,-16.73466,14.11416,12.11263,882.5338
20.400050163,327.5826,262.3031,-4.016028,0.9388802,2.057341,6.383801,-21.75451,50.49028,11.35705,882.5372
20.420067310,257.709,-202.9655,-22.48516,1.915753,0.3088674,4.873638,-21.75451,50.49028,11.35705,882.5372
20.440083981,-429.4525,-140.2446,12.80734,2.083278,-2.97796,-0.126736,-14.27126,19.4466,14.32591,882.5358
20.460101127,-13.28945,33.80297,1.347943,-2.596475,-0.6981531,-3.951082,-14.27126,19.4466,14.32591,882.5358
20.480118275,114.3913,-7.597549,0.06790435,-1.647825,0.9271318,0.7171328,-14.27126,19.4466,14.32591,882.5361
20.500135422,522.3666,364.2393,-14.86588,2.085738,0.3869138,4.073309,-22.3635,33.59225,16.84183,882.5361
20.520152569,409.3992,23.4676,22.37715,-0.9700498,-0.5158084,-1.449883,-22.3635,33.59225,16.84183,882.5397
20.540169716,277.7169,46.91412,11.28348,-1.533185,2.299008,0.7409166,-12.85735,27.69154,11.81058,882.5397
20.560186863,101.6479,-29.03605,-0.05400409,-0.2555251,0.1736552,0.9948007,-12.85735,27.69154,11.81058,882.5414
20.580204010,176.6311,-63.52664,12.3197,-0.07650016,0.9367458,1.155289,-12.85735,27.69154,11.81058,882.5414
20.600220680,250.3831,87.01533,-2.431219,0.7015718,-0.5615476,1.436053,-17.22231,30.9957,16.00998,882.5381
20.620237827,-75.59078,1930.844,-739.3068,16.01463,1.560204,-14.85037,-17.22231,30.9957,16.00998,882.5381
20.640254974,59.78534,1934.565,-799.7733,4.8844,-6.559791,-15.85739,-5.84917,29.86422,-12.75157,882.5364
20.660272121,134.0298,80.99128,-55.27852,-7.126111,-1.402365,-9.829734,-5.84917,29.86422,-12.75157,882.5364
20.680289268,-193.2369,100.5989,8.540541,0.6494526,-0.2440016,1.470412,-5.84917,29.86422,-12.75157,882.5364
20.700306415,-118.4999,-156.1906,36.33567,0.3561765,-0.4945871,-2.901826,18.48607,-9.697266,-36.46264,882.5364
20.720323086,54.79877,140.7592,-26.32527,-0.246768,-0.4029717,-1.046757,18.48607,-9.697266,-36.46264,882.5349
20.740340233,49.99689,-168.0615,2.32321,-0.6903437,0.3337069,0.7286234,3.25525,20.35726,-16.92532,882.5349
20.760357380,-176.1225,98.0594,-6.393242,0.389289,0.1776009,-0.7902667,3.25525,20.35726,-16.92532,882.5349
20.780374527,-124.3484,-50.76984,2.932752,-0.3564132,0.4015382,-1.074725,13.3216,28.42443,-13.01962,882.5367
20.800391674,122.2098,-0.9238573,-23.27756,-0.1354713,-1.123801,-1.652419,13.3216,28.42443,-13.01962,882.5367
20.820408821,78.4388,-13.09006,13.41688,-0.06841917,0.128305,-0.5591899,13.3216,28.42443,-13.01962,882.537
20.840425968,-125.8874,197.9876,-22.4242,0.4303755,-0.3274897,-2.528705,15.47956,29.12682,-14.67782,882.537
20.860443115,129.3511,-73.1533,21.95047,-0.2877805,0.4401041,-0.862595,15.47956,29.12682,-14.67782,882.5388
20.880460262,211.2909,143.2988,-23.0947,0.02660801,-0.2991664,-0.8421673,12.9011,31.66005,-9.158375,882.5388
20.900477409,139.9398,-205.0325,4.151837,-1.088257,-0.3213508,0.8413315,12.9011,31.66005,-9.158375,882.5391
20.920494556,-312.6683,147.0786,-0.4806836,0.2743736,1.082042,-0.5652376,12.9011,31.66005,-9.158375,882.5391
20.940511703,236.1006,95.34267,-15.9021,-0.7856075,0.8387235,-2.999052,18.3783,28.70827,-14.65306,882.5427
20.960528851,108.1735,-97.01322,20.18279,0.148189,-0.6638868,-0.4762065,18.3783,28.70827,-14.65306,882.5427
20.980545998,-201.4863,75.43971,25.54677,0.3263184,0.2791482,-3.00904,8.492728,35.65589,-9.622386,882.5444
21.000563145,148.1892,26.83398,-13.58584,-0.791723,-1.336662,-1.21169,8.492728,35.65589,-9.622386,882.5444
21.020580292,-94.73675,-0.5104427,-3.345532,0.6967242,-0.5148888,-0.2940886,8.492728,35.65589,-9.622386,882.5447
21.040597439,115.6226,87.84216,-9.25809,-0.3828747,-0.6519279,-2.747372,16.64037,23.35297,-14.24759,882.5447
21.060614586,535.6641,626.7576,-61.61776,5.461636,-2.016331,2.454302,16.64037,23.35297,-14.24759,882.5464
21.080631733,187.6508,1934.447,-665.6131,7.785593,-7.045503,-15.8527,34.83376,18.02167,-32.3858,882.5464
21.100648880,-59.70763,1934.565,-488.7849,-3.506309,-4.607761,-15.86645,34.83376,18.02167,-32.3858,882.5417
21.120666027,-238.3007,-328.5844,18.96371,3.052919,1.348737,6.764015,34.83376,18.02167,-32.3858,882.5417
21.140683174,-445.6435,-227.8885,47.55124,0.8261052,-2.697613,0.5737715,-0.01198051,21.1528,-17.82314,882.5399
21.160700321,-253.876,84.59389,32.00792,-1.777703,0.6341833,-0.8451752,-0.01198051,21.1528,-17.82314,882.5399
21.180716991,-687.8922,-262.8515,53.70762,0.9487551,0.009603779,2.378767,-36.29594,21.33675,6.048512,882.5417
21.200734139,-218.1697,788.0483,-60.82536,1.160576,-0.4720643,-2.419007,-36.29594,21.33675,6.048512,882.5417
21.220751286,206.489,-469.0273,8.906266,-1.218554,-0.06581581,1.316025,-36.29594,21.33675,6.048512,882.5402
21.240768433,-450.6916,138.8103,88.26866,0.2085432,-3.870383,-4.590207,-17.45662,17.35989,14.72724,882.5402
21.260785580,-39.63823,11.12422,18.59798,-0.3707781,-0.759702,-1.318695,-17.45662,17.35989,14.72724,882.5402
21.280802250,-133.4596,-114.731,-1.273088,-0.7368218,1.619472,4.823859,-24.52103,36.89462,11.29578,882.5402
21.300819397,276.6087,350.3604,-43.14863,-0.8568944,-1.16004,-5.353607,-24.52103,36.89462,11.29578,882.5388
21.320836544,76.22254,-184.3027,6.041418,1.319497,-0.4981644,1.276592,-24.52103,36.89462,11.29578,882.5388
21.340853691,176.2002,148.3779,-12.06198,1.003885,-1.212794,0.8552139,-12.50541,27.67244,15.17239,882.5423
21.360870838,40.08531,-51.89197,-2.126448,0.1612428,-1.269009,2.160971,-12.50541,27.67244,15.17239,882.5423
21.380887985,95.36851,-214.2458,-3.223624,-0.6457828,0.8405833,2.368296,-20.47621,29.64445,16.41267,882.5423
21.400905132,123.0717,297.3253,13.05115,0.1832495,-4.441736,-7.604814,-20.47621,29.64445,16.41267,882.5423
21.420922279,181.7408,12.12823,-0.8464089,-0.3391173,-2.69309,-1.07373,-20.47621,29.64445,16.41267,882.5408
21.440939427,128.5508,-78.76392,2.262256,-0.681761,0.2778301,3.860697,-13.62796,30.57791,12.62004,882.5408
21.460956097,-23.75509,61.73798,-2.004539,-0.3748577,0.1928226,0.2138887,-13.62796,30.57791,12.62004,882.5427
21.480973244,344.697,-21.00399,11.40539,0.1956323,0.9625275,0.8113767,-17.19791,29.59606,13.89169,882.5427
21.500990391,187.5893,47.68189,1.104126,0.7127731,-1.815718,0.3000452,-17.19791,29.59606,13.89169,882.5444
21.521007538,-78.66891,1927.478,-835.8582,16.01558,1.700356,-15.75553,-5.669857,35.18885,2.067581,882.5444
21.541024685,64.64878,1934.565,-852.9254,4.495341,-5.982213,-15.85378,-5.669857,35.18885,2.067581,882.5358
21.561041832,120.9785,-80.12228,-59.91104,-6.544939,-0.7110692,-8.699988,-5.669857,35.18885,2.067581,882.5358
21.581058979,-159.3159,166.3319,14.94073,0.3030178,0.5387547,-0.008272436,-1.641884,12.23934,-31.48312,882.5341
21.601076126,-1.407872,-157.4308,20.42661,-0.1760578,-0.1949068,-2.308163,-1.641884,12.23934,-31.48312,882.5341
21.621093273,33.6828,192.6723,-26.26432,0.1637425,0.06786979,1.561394,-1.355315,14.3301,-19.53284,882.5375
21.641110420,3.578698,-228.7744,11.34443,0.2879291,0.3887814,0.8779203,-1.355315,14.3301,-19.53284,882.5375
21.661127567,-91.53549,88.07839,-15.96305,0.1079303,-0.2141751,-1.89489,-1.355315,14.3301,-19.53284,882.5394
21.681144714,-57.55294,-69.31445,10.49108,-0.6004208,0.2260879,-0.8483981,12.21932,28.44874,-14.27337,882.5394
21.701161861,137.4158,56.89513,-36.32176,-0.0413001,-1.240001,-1.017321,12.21932,28.44874,-14.27337,882.5397
21.721179008,-156.7918,-53.7228,20.18279,0.2857955,1.016758,-1.087024,14.75341,27.30099,-13.88064,882.5397
21.741195202,32.94405,183.8134,-22.05848,-0.1615573,-0.7748014,-2.166056,14.75341,27.30099,-13.88064,882.5414
21.761212349,30.7278,-93.23343,29.38688,0.2496493,0.008630504,-1.207081,14.75341,27.30099,-13.88064,882.5414
21.781229496,175.9539,214.8195,-22.72897,-0.2158709,0.1963438,-0.32331,12.90909,32.03536,-11.33424,882.54
21.801246643,101.7095,-207.7493,-1.516905,-0.1683597,-0.7206942,1.500723,12.90909,32.03536,-11.33424,882.54
21.821263790,-179.139,154.3428,-5.296067,-0.5515237,0.2772087,-1.318864,17.27449,27.25294,-12.98747,882.54
21.841280937,6.71839,-45.45451,-9.745724,0.2196849,-0.2027779,-2.173217,17.27449,27.25294,-12.98747,882.54
21.861298084,-6.886941,93.68902,-20.65653,0.2489879,-0.1497257,-0.1146243,17.27449,27.25294,-12.98747,882.54
21.881315231,83.48693,22.69983,-0.297821,0.03653513,-0.03442907,-1.994104,12.11462,38.84765,-13.00237,882.5417
21.901332378,-83.77861,-2.813752,15.79409,-0.6792077,-0.09954422,-0.946022,12.11462,38.84765,-13.00237,882.5417
21.921349525,19.89278,103.611,-6.758968,-0.1091188,-0.3833474,-2.15396,14.09475,23.38361,-10.47614,882.5403
21.941366673,147.8198,-32.34336,-18.21836,-0.2344992,-0.4529618,-1.052931,14.09475,23.38361,-10.47614,882.5403
21.961383820,613.6023,773.9922,-53.81562,4.606758,-1.212254,-0.5881251,14.09475,23.38361,-10.47614,882.542
21.981400967,220.6484,1934.506,-645.2544,7.624096,-7.940938,-15.8606,26.87529,22.52833,-37.98041,882.542
22.001418114,-73.4361,1934.565,-490.9792,-3.754926,-4.225728,-15.86403,26.87529,22.52833,-37.98041,882.5384
