Time (s),Gyroscope X (deg/s),Gyroscope Y (deg/s),Gyroscope Z (deg/s),Accelerometer X (g),Accelerometer Y (g),Accelerometer Z (g),Magnetometer X (uT),Magnetometer Y (uT),Magnetometer Z (uT),Barometer (hPa)
0.001963139,-0.07964666,-0.07832224,-0.1243198,0.02385673,0.08624697,0.9839893,22.41547,5.906391,33.60878,882.6826
0.021785736,-0.2664493,0.03962503,-0.001926631,0.01947941,0.08190196,0.9883105,22.41547,5.906391,33.60878,882.6826
0.041604519,-0.0791102,0.1573131,-0.1241181,0.01606443,0.07455567,0.9854473,22.41547,5.906391,33.60878,882.6809
0.061427116,0.1075241,-0.01924541,-0.1241906,0.01751304,0.07844256,0.9844851,22.05681,5.183512,33.62881,882.6809
0.081249714,0.04501772,-0.0193451,0.1204563,0.01703745,0.08094206,0.990232,22.05681,5.183512,33.62881,882.6809
0.101071835,0.2319657,-0.01938897,-0.1244117,0.0160048,0.08673129,0.9864016,22.05681,5.183512,33.62881,882.6809
0.120894432,-0.2045259,0.09848426,-0.001864657,0.01702342,0.0863286,0.9931036,22.44226,5.552204,34.42395,882.6791
0.140717506,-0.2661121,-0.07833339,0.1205476,0.01997016,0.08338074,0.9897456,22.44226,5.552204,34.42395,882.6791
0.160540104,0.2321346,0.09852619,-0.001701809,0.01798692,0.08037361,0.9830468,22.05265,5.547692,33.62235,882.6809
0.180362225,-0.2659878,-0.01945333,0.120518,0.01504552,0.08185605,0.9859265,22.05265,5.547692,33.62235,882.6809
0.200184822,0.2325715,-0.01953389,0.120273,0.01946129,0.07939482,0.982086,22.05265,5.547692,33.62235,882.6809
0.220007420,-0.266412,0.2160717,0.05905527,0.01991007,0.0906278,0.9854338,22.42378,5.178032,33.62169,882.6809
0.239826202,0.2323633,0.1569313,-0.06340448,0.02191268,0.08678298,0.9887823,22.42378,5.178032,33.62169,882.6809
0.262126923,-0.01688676,0.03907029,-0.06334061,0.01353776,0.08275482,0.9801832,22.05681,5.183512,33.62881,882.6809
0.281949520,-0.1415518,0.09806932,-0.1244623,0.01996578,0.08238474,0.9878304,22.05681,5.183512,33.62881,882.6809
0.301771641,0.04531737,-0.01968712,0.05917351,0.01309842,0.07795009,0.9854532,22.05681,5.183512,33.62881,882.6809
0.321594238,0.2319909,0.03923771,-0.1855791,0.01647868,0.08866233,0.9849634,22.41962,5.542212,33.61524,882.6809
0.341417313,0.1697388,-0.1372279,-0.001866698,0.02242986,0.08783235,0.9950061,22.41962,5.542212,33.61524,882.6809
0.361239910,-0.01696652,0.03961323,-0.001862109,0.02535695,0.08631561,0.9892533,22.43596,5.183413,34.05715,882.6809
0.381062031,-0.5152261,-0.3137193,0.1204157,0.02784613,0.08246128,0.9916431,22.43596,5.183413,34.05715,882.6791
0.400884628,0.4810687,0.157664,0.05912084,0.01652647,0.08237125,0.9878383,22.43596,5.183413,34.05715,882.6791
0.420707226,-0.07876202,0.3341159,0.1199841,0.01754566,0.08049171,0.9931041,21.70202,5.194372,34.07138,882.6791
0.440526009,0.8544348,-0.01914263,-0.06383253,0.01499964,0.0832243,0.9782642,21.70202,5.194372,34.07138,882.6791
0.460348606,-1.511737,0.3338984,-0.06382596,0.005714641,0.08281545,0.9878632,22.40744,5.536831,33.17978,882.6791
0.480171203,3.843958,-31.12514,-0.3084241,2.076086,0.2048374,0.9868754,22.40744,5.536831,33.17978,882.6791
0.499993324,38.53144,-28.65083,-6.24333,0.3579316,-0.3154305,-0.1276424,22.40744,5.536831,33.17978,882.6791
0.519816399,5.276295,17.94879,-3.428838,-0.6894312,-0.1995486,0.2257547,22.0098,5.162759,31.94917,882.6791
0.542117119,77.20455,-0.9620548,-8.874269,0.8064501,0.2162161,1.096593,22.0098,5.162759,31.94917,882.6773
0.561939716,61.01291,-46.14778,2.750806,1.197968,-0.02643954,1.020098,19.53795,8.004536,23.47986,882.6773
0.581761837,70.41652,-32.06774,-6.488068,0.6567217,-0.01842171,0.9739383,19.53795,8.004536,23.47986,882.6756
0.601584434,232.2707,17.24184,-3.428838,0.1438521,1.995598,2.61945,19.53795,8.004536,23.47986,882.6756
0.621407032,16.04996,-45.73539,2.995544,1.386536,-0.1226797,0.3128793,10.70547,15.36661,14.68097,882.6756
0.641225815,99.37465,-58.10697,14.43706,2.086303,1.562971,1.807715,10.70547,15.36661,14.68097,882.6756
0.661048412,417.1667,-59.04957,-30.41125,1.205271,1.439303,3.032341,3.086218,22.3679,7.545624,882.6756
0.680871010,-382.7004,384.6188,-24.41516,1.390958,1.164594,0.007451918,3.086218,22.3679,7.545624,882.6756
0.700693130,-285.3637,-10.38802,-4.530161,1.073762,-0.5198539,-0.4515155,3.086218,22.3679,7.545624,882.6739
0.720516205,177.655,-125.7383,30.89572,1.46827,2.248883,4.979538,-1.96843,22.34166,-0.3233685,882.6739
0.740338802,319.1451,164.9349,-21.66185,0.3423284,1.361338,2.532981,-1.96843,22.34166,-0.3233685,882.6739
0.760161400,-0.8267083,38.74482,-9.180191,0.2582404,0.03626972,0.8364494,-8.21726,28.45393,14.8182,882.6739
0.779983520,100.3711,-178.4059,26.12332,-0.2692524,-2.004434,0.6855066,-8.21726,28.45393,14.8182,882.6739
0.799806118,241.9234,104.8444,-65.04173,1.184928,1.816232,4.168156,-8.21726,28.45393,14.8182,882.6739
0.822106361,-273.905,19.30377,29.42729,1.070071,-0.6433336,1.804963,-3.439411,27.8524,1.723386,882.6721
0.841925621,155.1736,-77.13564,5.014636,2.640807,1.138536,5.410053,-3.439411,27.8524,1.723386,882.6721
0.861748219,-73.43999,34.26749,14.25351,-0.6768698,1.77158,-5.250727,-0.927,2.579749,2.936878,882.6721
0.881570816,-120.1467,-26.88346,11.80613,-0.1136746,-1.846797,-0.06145675,-0.927,2.579749,2.936878,882.6721
0.901392937,394.1248,-90.56764,30.22269,0.2229698,-1.445965,0.4711089,-6.322325,36.76487,7.098719,882.6721
0.921216011,-144.5587,125.8172,-16.09405,-0.7341045,1.561511,-6.20061,-6.322325,36.76487,7.098719,882.6721
0.941038609,-356.2333,113.3867,1.160006,-0.2008901,-1.310771,-0.6197744,-6.322325,36.76487,7.098719,882.6703
0.960861206,-276.5829,-30.4182,-8.078869,1.238308,0.4421563,4.152634,-5.592264,36.02018,6.661931,882.6703
0.980683327,-85.45918,-14.15841,-9.180191,-0.6269676,0.8243914,-3.169397,-5.592264,36.02018,6.661931,882.6703
1.000505924,-145.2437,160.2809,5.626482,0.8679653,-1.06868,-0.1353041,-9.369066,27.71587,12.73736,882.6703
1.020328999,401.2242,772.9687,22.51343,4.955853,-5.415973,0.2501568,-9.369066,27.71587,12.73736,882.6703
1.040147305,-234.6091,1930.065,-191.2044,10.45752,-4.499097,-15.72882,-9.369066,27.71587,12.73736,882.6703
1.059969902,-52.76451,1930.124,79.29274,-8.955357,1.355206,-15.68568,-25.06518,25.78918,43.46187,882.66
1.079792500,-115.476,-187.8318,33.58784,0.2669954,-0.5343923,0.02491242,-25.06518,25.78918,43.46187,882.66
1.102092743,-138.9539,-88.97701,-4.346607,1.694001,1.259434,3.006842,6.028248,32.20918,11.54461,882.6617
1.121915817,147.14,-73.12961,-7.099914,-0.3020821,1.05789,-0.9544858,6.028248,32.20918,11.54461,882.6617
1.141738415,-87.14062,155.5679,-10.70981,0.17974,0.1105801,-1.109038,6.028248,32.20918,11.54461,882.6617
1.161561012,-81.41127,-93.63108,0.05868353,0.05130509,0.5646958,-2.035009,29.42887,23.17916,-12.72232,882.6617
1.181383133,15.17811,113.5045,-7.528206,-0.351604,-0.8141328,-2.216602,29.42887,23.17916,-12.72232,882.665
1.201205730,-17.70338,-44.02694,-7.772944,0.09644053,0.5379248,-0.9073671,23.8595,30.94693,-9.763888,882.665
1.221028805,62.44525,80.69037,-5.019638,-0.09830709,0.1259713,-1.276963,23.8595,30.94693,-9.763888,882.6686
1.240847111,53.47757,-40.0209,7.706758,0.01699735,-0.7709255,-1.081108,23.8595,30.94693,-9.763888,882.6686
1.260669708,36.97455,-30.65385,1.404745,-0.3566504,0.5807508,-0.3891536,22.51041,31.75331,-5.207091,882.6686
1.280492306,-167.9743,-41.96501,5.07582,0.3910981,0.3988839,-0.790684,22.51041,31.75331,-5.207091,882.6686
1.300315380,77.64048,52.94268,-2.939362,0.2661146,-0.3645131,-1.725404,34.51166,26.93693,-26.33716,882.6703
1.320137501,-164.3,-225.0644,24.53252,-0.4883432,0.8963556,1.108962,34.51166,26.93693,-26.33716,882.6703
1.339960098,68.4237,143.6676,4.831082,-0.2348379,-0.7999834,-2.33372,34.51166,26.93693,-26.33716,882.6703
1.359782696,132.5052,-111.2459,-1.165008,0.9631914,-0.4581076,-1.072372,10.5912,20.27286,-0.5332165,882.6703
1.382082939,-93.11907,-39.84417,18.84235,0.124806,0.09657088,-0.7147977,10.5912,20.27286,-0.5332165,882.6721
1.401905537,13.55894,8.404999,-7.895314,-0.6812544,0.7483124,-0.4708184,25.05895,27.65196,-9.728341,882.6721
1.421728611,-40.68306,113.5634,-7.71176,-0.6013387,0.6071799,-0.4585111,25.05895,27.65196,-9.728341,882.6721
1.441546917,139.8538,-68.12206,-1.899224,0.137543,0.4696383,-1.792393,25.05895,27.65196,-9.728341,882.6721
1.461369514,-5.621925,219.6055,64.11896,0.5573545,-0.4064895,-2.282032,13.18108,24.66906,-0.2895007,882.6721
1.481192112,-567.5341,1930.124,-506.1215,13.97806,5.786366,-15.73996,13.18108,24.66906,-0.2895007,882.6721
1.501015186,-677.3259,1930.124,-26.31188,-0.4279321,-3.420211,-15.70398,1.833275,6.760578,48.31723,882.6634
1.520837307,-114.4173,-291.1051,3.179098,-1.611893,-2.714105,-3.136395,1.833275,6.760578,48.31723,882.6634
1.540659904,733.6511,-53.62964,-24.72108,1.373952,1.841571,2.801976,1.833275,6.760578,48.31723,882.6686
1.560482502,169.1855,-109.4785,-32.30797,-0.1049772,-0.1667714,-1.055624,-3.039955,-8.253103,41.08718,882.6686
1.580304623,512.8843,-302.0038,-4.101869,0.07928552,-0.1768242,2.735644,-3.039955,-8.253103,41.08718,882.6686
1.600127697,30.18651,437.6988,-31.45138,3.23642,1.126057,2.98129,4.561504,18.62812,6.338596,882.6669
1.619950294,-251.3612,-239.3801,58.79589,-0.7517693,-0.1786502,0.1626818,4.561504,18.62812,6.338596,882.6669
1.639768600,241.1138,-116.1356,18.59762,1.152418,-0.107914,1.547942,4.561504,18.62812,6.338596,882.6669
1.662069321,-57.68428,-36.13269,-7.283468,0.421535,0.3878332,-1.197311,-4.71907,20.57615,5.614538,882.6617
1.681891441,-192.3863,-36.25051,-1.348562,-1.162424,0.9178254,-0.4185174,-4.71907,20.57615,5.614538,882.6617
1.701714992,60.14105,79.15865,-133.4461,1.183558,1.145,5.822852,-2.960209,29.36052,6.293894,882.6617
1.721537113,-113.8568,-15.27774,2.689621,0.4173472,0.516579,0.5433518,-2.960209,29.36052,6.293894,882.6634
1.741359711,89.34828,-62.81996,51.39256,-1.953001,-4.702961,-3.97975,-5.286835,-3.191364,2.316845,882.6634
1.761182308,-31.03035,22.7796,0.6705295,-1.074252,3.362285,-3.070939,-5.286835,-3.191364,2.316845,882.6634
1.781004429,-154.0245,171.7099,5.137005,-0.8842359,-1.553986,-0.7546023,-5.286835,-3.191364,2.316845,882.6634
1.800827503,487.1645,-23.58437,7.523204,0.2330024,3.031881,4.33473,-6.342278,35.29201,5.818153,882.6634
1.820650101,-96.54423,-19.63725,30.52861,-0.4434424,2.374318,-0.03080529,-6.342278,35.29201,5.818153,882.6634
1.840468407,-322.3554,-30.65385,-11.81113,-2.023047,0.5215422,-0.1099365,-5.592264,36.02018,6.661931,882.6634
1.860291004,-73.1909,7.108928,4.463974,-0.9957798,0.5035751,0.8186182,-5.592264,36.02018,6.661931,882.6634
1.880113602,-106.9442,-133.5147,18.6588,1.70638,1.005312,3.441223,-5.592264,36.02018,6.661931,882.6634
1.899936676,-148.7311,179.2506,2.444883,1.228026,0.5687704,0.9796295,-9.00625,28.07458,12.72379,882.6634
1.919758797,402.0961,1930.124,-571.4666,11.5095,-1.28123,-7.574165,-9.00625,28.07458,12.72379,882.6652
1.942059517,-329.7039,1930.124,-230.3013,3.871178,-1.356809,-15.71452,-26.93254,27.2942,45.09026,882.6652
1.961881638,-80.60168,748.3433,82.35197,-4.787455,0.9897427,-7.433267,-26.93254,27.2942,45.09026,882.6582
1.981704235,112.5771,-16.27925,11.62257,1.29006,-0.9126054,1.593352,-26.93254,27.2942,45.09026,882.6582
2.001527309,334.7762,100.1314,-49.86795,0.454596,-0.1085614,-0.5210783,-2.107597,28.30391,10.09375,882.6582
2.021349907,-27.35609,-40.78676,11.80613,-0.1199189,0.2981721,-1.192203,-2.107597,28.30391,10.09375,882.6582
2.041168213,-54.88189,31.67535,16.82326,0.1486241,-0.5234399,-1.221794,30.88014,24.61396,-12.77661,882.66
2.060990810,3.968509,-11.15388,-1.776854,0.1209108,-0.1352952,-1.633193,30.88014,24.61396,-12.77661,882.66
2.080813408,131.6957,94.53476,-13.21837,-0.3659635,-0.2429517,-1.93133,30.88014,24.61396,-12.77661,882.66
2.100636482,-135.0305,-140.8787,30.40624,-0.05192322,-0.7840158,0.0482292,22.01661,30.60476,-10.15731,882.66
2.120458603,89.90876,131.0015,-11.26047,-0.1983406,0.3732525,-1.56221,22.01661,30.60476,-10.15731,882.66
2.140281200,-7.926121,21.95482,-6.855175,-0.4098208,0.3171963,-1.173821,22.15563,31.76417,-4.764512,882.66
2.160103798,65.43447,2.160296,3.423836,-0.2666534,0.5016254,-1.138291,22.15563,31.76417,-4.764512,882.66
2.179926872,-7.178814,-34.30641,13.27456,-0.733093,-1.571858,-2.467863,22.15563,31.76417,-4.764512,882.66
2.199748993,-30.28304,257.1327,-2.205146,-2.822351,0.7101098,0.01348765,33.76165,26.20877,-27.18094,882.6566
2.222049713,-93.05679,-125.1492,-8.445976,0.6190881,-0.1432946,0.1029979,33.76165,26.20877,-27.18094,882.6566
2.241868019,-90.50349,97.36255,8.930449,-1.027019,-0.4761404,-2.702151,10.96766,21.43061,0.2479405,882.6602
2.261690617,-70.76215,-26.70672,2.261329,0.07508568,0.2325913,-1.370295,10.96766,21.43061,0.2479405,882.6602
2.281512737,-102.3981,150.0301,19.39302,-0.2835999,0.1644388,-1.539924,10.96766,21.43061,0.2479405,882.6619
2.301336289,28.81645,-47.62059,-9.730853,0.5196321,0.2389043,0.07390463,25.04288,26.91284,-10.58635,882.6619
2.321158409,89.41056,-2.788336,-0.06368566,-0.4326835,0.1697218,-1.088007,25.04288,26.91284,-10.58635,882.6619
2.340981007,77.14227,71.02876,-5.509115,0.7662416,0.03618896,-1.707043,13.56439,24.30478,0.1452966,882.6619
2.360803604,1510.539,1382.888,-263.0963,3.190315,2.978219,5.915846,13.56439,24.30478,0.1452966,882.6636
2.380626679,-118.7143,1930.124,-206.2558,2.920548,-2.394457,-15.70723,13.56439,24.30478,0.1452966,882.6636
2.400448799,4.964918,1736.361,68.7078,-3.83803,1.416181,-9.977425,3.797245,5.692142,52.46899,882.6584
2.420271397,296.3522,-127.918,5.259374,-0.2322711,-2.959438,4.483617,3.797245,5.692142,52.46899,882.6584
2.440089703,-8.984805,76.33086,-37.26392,-0.476561,-0.2711493,-4.016065,2.596102,-13.42933,41.50505,882.6602
2.459912300,505.0375,111.2658,-4.958453,1.243222,0.204988,5.073079,2.596102,-13.42933,41.50505,882.6602
2.479735374,499.6819,78.21606,-5.203192,0.5913374,-0.9293995,-0.7687293,2.596102,-13.42933,41.50505,882.6602
2.502035618,-154.7096,310.625,-17.56248,0.4745928,0.04719596,-2.238397,3.819527,18.26952,5.923825,882.6602
2.521858215,101.7411,-231.7215,27.71412,0.836254,-1.425574,4.796753,3.819527,18.26952,5.923825,882.6602
2.541680813,-211.6917,-11.62518,-33.40929,0.01230763,-0.7092983,0.2946768,-5.069973,21.32075,6.479668,882.6602
2.561502933,-370.868,-48.85775,-4.163054,0.5464969,-0.03938819,-0.05489183,-5.069973,21.32075,6.479668,882.6602
2.581326485,445.8758,-212.3982,43.13264,0.1002559,2.846651,5.780321,-5.069973,21.32075,6.479668,882.6602
2.601148605,-84.21367,93.35651,12.60153,-2.047509,0.2072611,-3.731958,-2.617615,29.34428,5.415856,882.6619
2.620971203,-246.0678,-49.6236,29.91677,-0.6684965,0.1433131,-0.8168934,-2.617615,29.34428,5.415856,882.6619
2.640789509,-224.1468,41.69044,-113.4387,1.616591,-0.9152744,4.568774,-4.928171,-2.468484,2.296819,882.6636
2.660612106,-352.4345,-167.3304,15.53839,-0.9213998,1.238563,-0.6140682,-4.928171,-2.468484,2.296819,882.6636
2.680435181,142.2202,-92.80631,-9.914407,0.4934861,1.447647,4.050145,-4.928171,-2.468484,2.296819,882.6636
2.700257778,-93.49272,383.7941,-52.49889,0.219112,1.994288,-1.06802,-5.581818,36.02479,7.035182,882.6636
2.720079899,-597.7378,-94.63259,18.16932,1.93876,-1.71301,-0.2941794,-5.581818,36.02479,7.035182,882.6636
2.739902496,-94.86279,-3.082897,-8.384791,0.6763341,0.3947547,3.055897,-5.608606,36.37897,6.220016,882.6636
2.759725571,369.5882,320.699,-7.589391,-1.683037,1.743311,1.36719,-5.608606,36.37897,6.220016,882.6655
2.782025337,-232.3672,131.4728,16.82326,0.7278488,-2.062046,-0.804628,-7.907747,28.42309,12.75819,882.6655
2.801848412,242.3593,633.4644,35.42338,2.772726,-4.018411,-2.488654,-7.907747,28.42309,12.75819,882.6639
2.821671009,-185.0378,1930.006,-254.4081,9.067648,-4.059813,-15.72573,-7.907747,28.42309,12.75819,882.6639
2.841489315,-57.93339,1924.115,49.2511,-10.15496,1.86433,-15.68306,-26.85056,24.40228,46.88374,882.6586
2.861311913,-164.9228,-161.3213,42.27605,-0.06202015,-1.426062,-0.5817518,-26.85056,24.40228,46.88374,882.6586
2.881134987,142.843,-164.9149,-6.610437,0.789138,0.5068345,3.522502,5.668438,20.0784,7.100139,882.6586
2.900957584,80.56743,34.20858,-6.488068,-0.6433738,0.9619908,-2.47839,5.668438,20.0784,7.100139,882.6586
2.920779705,-96.29512,-2.434862,5.626482,0.4065768,-0.6368015,-0.3670954,5.668438,20.0784,7.100139,882.6622
2.940602303,-93.05679,-3.907669,2.567252,-0.4972323,1.023017,-1.203037,30.90424,25.72264,-11.48959,882.6622
2.960424900,-36.88425,96.36104,-8.140053,0.03863504,0.4042286,-1.695414,30.90424,25.72264,-11.48959,882.6622
2.980247974,-62.41722,-23.82002,-2.205146,0.05206153,-0.1094445,-1.033496,22.77734,30.23962,-9.356375,882.6639
3.000070095,88.10278,21.66026,-0.92027,-0.5387161,-0.7041673,-1.011366,22.77734,30.23962,-9.356375,882.6639
3.019892693,62.44525,53.88528,7.523204,-0.4582121,0.1942297,-1.350376,22.77734,30.23962,-9.356375,882.6639
3.039710999,40.58653,-18.16444,-2.205146,0.2367008,-0.06006798,-1.197711,22.16366,32.13373,-4.335505,882.6639
3.062011719,-167.4138,-85.91357,-3.673577,0.5322186,1.091688,-1.212139,22.16366,32.13373,-4.335505,882.6639
3.081834793,-21.87584,38.21461,4.341605,1.080144,-1.22818,-1.585765,34.11845,25.10076,-27.97741,882.6639
3.101656914,-82.46996,-96.6356,13.15219,-0.4175978,0.9916734,0.4278184,34.11845,25.10076,-27.97741,882.6622
3.121479511,163.2071,112.2674,-27.47438,0.08458039,0.285319,-0.9910678,34.11845,25.10076,-27.97741,882.6622
3.141302109,-6.182405,-1.61009,16.76208,1.00557,-0.3182328,-0.4140652,10.94301,22.51777,-0.2068825,882.6622
3.161124706,-37.13335,-4.43788,-3.306469,-0.04035163,0.06064644,-1.837355,10.94301,22.51777,-0.2068825,882.6622
3.180947781,30.74699,108.4381,-7.956499,-0.5609371,-0.01183679,-0.1117214,25.03873,27.27702,-10.59281,882.6622
3.200769901,55.96859,5.812858,-7.528206,0.5608281,0.02643434,-0.4567159,25.03873,27.27702,-10.59281,882.6622
3.220592499,64.18896,-4.143318,-6.610437,-0.5519045,0.2876116,-2.09866,25.03873,27.27702,-10.59281,882.6622
3.240410805,14.1817,231.3291,80.21051,0.9184068,-2.354106,-2.102241,13.93136,24.2993,0.1381783,882.6622
3.260233879,-488.5688,1927.649,-495.8425,13.87289,6.717751,-15.73999,13.93136,24.2993,0.1381783,882.6622
3.280056477,-701.1775,1930.124,-31.69612,-0.1632221,-2.190564,-15.70496,0.2299118,3.989976,57.67473,882.6622
3.299879074,-115.7874,-77.96041,-15.97168,-4.261559,-2.641702,-4.880085,0.2299118,3.989976,57.67473,882.6569
3.319701195,726.1781,-148.3017,-46.99227,2.990929,1.247766,5.191327,0.2299118,3.989976,57.67473,882.6569
3.342001915,246.9054,-168.3908,11.43902,0.3049647,-0.08060337,-0.7386265,1.03351,-8.325047,40.13678,882.655
3.361824036,587.0545,-128.5072,-34.5718,1.00037,2.17541,3.70541,1.03351,-8.325047,40.13678,882.655
3.381647110,-270.7912,297.8411,-71.16019,0.2796526,0.01921865,0.5826041,3.427908,19.36216,5.47612,882.655
3.401469708,-431.0885,-183.7669,61.61039,-0.3386162,-0.7043964,-0.4027059,3.427908,19.36216,5.47612,882.655
3.421292305,257.2431,-153.7805,-12.42297,1.150643,0.4898266,3.77212,3.427908,19.36216,5.47612,882.65
3.441110611,-297.6942,10.99714,9.481111,-0.9581825,1.958903,-3.157471,-5.781281,21.3417,7.302617,882.65
3.460933208,-108.3143,-9.975634,5.07582,-1.319149,-0.8459786,-1.097633,-5.781281,21.3417,7.302617,882.65
3.480756283,-87.2029,139.8972,-69.01872,0.7620536,1.997028,2.248813,-2.23403,27.88208,5.434555,882.65
3.500578880,-241.8953,-28.47409,9.542295,0.1958678,0.09714362,0.126412,-2.23403,27.88208,5.434555,882.6518
3.520401001,659.3564,-277.9676,7.033728,0.1264964,-3.584588,1.310938,-2.23403,27.88208,5.434555,882.6518
3.540223598,-144.4341,209.237,-50.66335,2.251549,0.7269661,-0.9880626,-3.468594,-1.762042,2.25544,882.6535
3.560046673,27.13501,-41.14024,-4.101869,0.6440158,-1.130504,-0.4718929,-3.468594,-1.762042,2.25544,882.6535
3.579869270,179.0874,-131.9241,-45.2791,1.227582,3.75333,5.013653,-5.585972,36.38897,7.028729,882.6518
3.599691391,-326.0919,16.82945,-61.9825,-1.27287,1.593426,-3.098694,-5.585972,36.38897,7.028729,882.6518
3.621992111,-377.8429,107.8489,11.5002,-0.5635344,-3.129036,-2.534361,-5.924414,36.04103,7.913223,882.6535
3.641810417,-100.1562,-151.7186,18.6588,0.9387727,0.2350895,3.289984,-5.924414,36.04103,7.913223,882.6535
3.661633015,-113.1718,-47.26711,24.77726,-0.4941224,0.9271181,0.3849159,-5.924414,36.04103,7.913223,882.6535
3.681456089,-244.3241,117.3927,7.890312,1.348553,-1.109952,0.6111133,-9.371477,28.08082,12.79312,882.6535
3.701278210,-391.3567,1924.822,-674.3791,14.2795,2.675396,-15.73975,-9.371477,28.08082,12.79312,882.6535
3.721100807,-361.6512,1930.124,-261.1384,3.963279,-1.955426,-15.71456,-23.17537,19.86884,43.09517,882.6535
3.740923405,-109.6844,748.8735,88.47043,-5.930284,1.108122,-6.716188,-23.17537,19.86884,43.09517,882.6431
3.760746479,85.73631,75.0937,5.137005,1.11302,-0.4813728,0.8456405,-23.17537,19.86884,43.09517,882.6431
3.780569076,135.7436,121.4577,-32.91982,-1.054711,0.215349,0.619629,19.26024,20.95192,5.572054,882.6431
3.800391197,-0.5776061,-70.30182,-0.06368566,0.1326763,0.7122043,-0.748996,19.26024,20.95192,5.572054,882.6431
3.820213795,35.04401,29.55451,10.39888,-0.2964041,-0.514827,-1.576569,29.41198,25.7338,-12.33204,882.6483
3.840032101,-7.178814,-37.84115,7.46202,0.2622089,0.4841455,-1.024578,29.41198,25.7338,-12.33204,882.6483
3.859855175,82.87163,114.5649,-9.853222,-0.8710073,-0.2161376,-2.086282,29.41198,25.7338,-12.33204,882.65
3.879677772,-51.20763,-88.85918,27.53057,0.2612364,-0.2957121,0.4975001,22.78122,30.97336,-8.933822,882.65
3.901978016,26.51226,59.59977,-2.939362,-0.2672442,-0.01076423,-1.793233,22.78122,30.97336,-8.933822,882.6484
3.921800613,-21.37764,30.20254,-8.017684,0.05066464,0.3756268,-0.9962835,21.78451,32.13383,-4.763848,882.6484
3.941623211,-34.76688,-15.51339,8.13505,-0.02143879,0.6135862,-1.501394,21.78451,32.13383,-4.763848,882.652
3.961445332,38.90509,15.88686,15.35483,0.7715791,-1.925291,0.8980914,21.78451,32.13383,-4.763848,882.652
3.981268406,67.98777,211.888,-16.09405,-0.3187708,-0.3006026,-4.130871,35.59048,24.71466,-27.99943,882.6537
4.001091003,25.14219,-157.1974,-13.27956,1.679713,-0.08807312,0.2207278,35.59048,24.71466,-27.99943,882.6537
4.020913601,-147.4856,69.61486,27.4082,-1.168603,-0.5278313,-2.868935,12.11312,22.86998,0.1995845,882.6537
4.040731907,-22.18722,-5.203739,-15.42102,-0.3221243,0.7748861,-0.6464432,12.11312,22.86998,0.1995845,882.6537
4.060554981,-101.7754,92.23717,-1.165008,0.4101081,-0.5159005,-2.268251,12.11312,22.86998,0.1995845,882.6555
4.080377579,50.42607,-105.767,-15.29865,0.3900667,0.9294465,-0.243489,25.04704,26.54866,-10.5799,882.6555
4.100200176,-136.2137,103.1359,7.706758,-1.101815,0.562791,-1.731135,25.04704,26.54866,-10.5799,882.6555
4.120022297,132.0693,28.37626,-10.83218,-0.08438354,0.196628,-0.2929384,13.93136,24.2993,0.1381783,882.6555
4.139844894,1437.863,1328.158,-261.5055,3.4299,3.294319,4.065805,13.93136,24.2993,0.1381783,882.6572
4.159667969,-125.2533,1930.124,-214.3321,2.728742,-2.637022,-15.70528,13.93136,24.2993,0.1381783,882.6572
4.181968212,-16.08422,1386.776,101.5027,-3.861094,1.95357,-6.971664,0.6013088,2.522399,57.25797,882.652
4.201790810,566.4413,-178.7593,-52.31533,-1.493395,-1.108742,5.288573,0.6013088,2.522399,57.25797,882.652
4.221613407,246.0959,127.2311,6.727805,-1.35945,-0.7919859,-3.576664,1.632317,-8.761675,35.15231,882.652
4.241431713,465.0566,-151.0706,-56.10878,-4.672126,-3.747444,-1.129262,1.632317,-8.761675,35.15231,882.652
4.261254311,385.3439,51.70552,-1.042639,0.4755058,1.423697,1.433649,1.632317,-8.761675,35.15231,882.652
4.281077385,-193.9432,199.9877,36.46352,-3.19665,3.782547,2.479631,3.060938,19.36764,5.483238,882.652
4.300899506,-14.3405,58.59826,18.53643,0.7016482,-2.280391,-0.09098767,3.060938,19.36764,5.483238,882.652
4.320722103,522.1011,228.8548,-9.180191,-0.9673348,2.695123,2.523644,-5.770056,22.5057,8.153101,882.652
4.340544701,-137.0856,74.91697,-19.21446,-0.1053873,0.3845079,0.9032716,-5.770056,22.5057,8.153101,882.652
4.360367775,399.1691,40.39437,32.1806,-1.397168,-2.436658,0.7615061,-5.770056,22.5057,8.153101,882.6537
4.380190373,-94.48914,103.6072,35.17864,-2.521017,2.447678,0.40304,-1.918222,28.22003,3.741347,882.6537
4.400012493,-246.0678,-60.99368,38.23787,-0.1977726,0.7531835,2.554519,-1.918222,28.22003,3.741347,882.6505
4.419835091,378.5559,192.0346,-139.3198,-0.3279496,1.725597,3.678442,-3.080166,-3.649115,2.281668,882.6505
4.439653397,-269.8571,-34.48315,7.217281,0.4810663,0.8627126,1.557828,-3.080166,-3.649115,2.281668,882.6486
4.461954117,378.0577,-288.1595,27.59175,0.1952698,-3.960233,1.206017,-3.080166,-3.649115,2.281668,882.6486
4.481777191,-144.4341,206.8216,-65.10291,-2.451876,3.293538,0.1914509,-7.07649,36.40089,6.248487,882.6486
4.501599312,-378.4656,-37.66441,7.156097,0.1727754,-0.05223711,1.236529,-7.07649,36.40089,6.248487,882.6486
4.521421909,-176.3815,-15.63121,-7.528206,-0.3094094,-0.09389051,0.9632629,-6.324066,36.7641,7.03651,882.6505
4.541244507,-26.42196,14.53188,-32.24678,-0.8830195,2.063047,3.965032,-6.324066,36.7641,7.03651,882.6505
4.561066627,-148.9802,195.2748,4.463974,0.3657961,-0.4452413,0.6136677,-6.324066,36.7641,7.03651,882.6522
4.580890179,334.6516,786.9309,-4.65253,2.592248,-6.921741,-8.587228,-10.07836,26.63968,13.20642,882.6522
4.600712299,-129.7371,1930.065,-288.4267,8.759595,-5.269681,-15.72467,-10.07836,26.63968,13.20642,882.6522
4.620534897,-89.88074,1867.912,2.13896,-7.913589,2.090497,-15.08589,-21.62502,23.97047,47.59807,882.6522
4.640353203,-129.488,-81.55406,51.75967,0.3343859,-0.8269319,-0.1695786,-21.62502,23.97047,47.59807,882.6469
4.660176277,-125.7515,-137.6975,-16.88945,1.44671,-1.684444,-0.3064594,-21.62502,23.97047,47.59807,882.6469
4.679998875,170.9293,-39.60852,-10.83218,-0.181603,0.8276258,-1.371313,16.65082,27.62157,6.748804,882.6486
4.699821472,-41.55492,78.39279,-2.939362,-0.3137907,-0.1662984,-1.150915,16.65082,27.62157,6.748804,882.6486
4.719643593,-81.72265,-28.94539,5.381743,-0.2298688,0.04594987,-0.557852,27.94852,24.29362,-12.71321,882.6505
4.741944313,13.06074,26.90346,-6.24333,-0.4939161,0.5438681,-1.438029,27.94852,24.29362,-12.71321,882.6505
4.761766434,-136.7119,46.22668,4.096867,-0.5212998,0.8845925,-1.541502,23.15235,30.6037,-8.934485,882.6522
4.781589508,96.01176,50.99858,0.1198681,-0.003104842,-0.994037,-1.014434,23.15235,30.6037,-8.934485,882.6522
4.801412106,68.98418,17.18293,-9.975591,-0.5554302,-0.1220334,-1.766196,23.15235,30.6037,-8.934485,882.6522
4.821234703,-27.10699,11.23279,2.444883,-0.7125612,1.102914,-0.2658938,21.78866,31.76965,-4.757394,882.6522
4.841053009,-118.1538,12.05756,8.502157,0.9665486,-0.4364199,-0.9684715,21.78866,31.76965,-4.757394,882.6539
4.860875607,133.7508,-105.0601,1.955406,1.476358,-0.9880712,-1.003966,37.15462,23.60929,-27.20101,882.6539
4.880698681,-155.1455,-47.14929,29.85558,-0.7323587,-0.1778432,-1.736081,37.15462,23.60929,-27.20101,882.6523
4.900521278,25.14219,93.70998,-11.9335,-0.3545847,0.02427869,-0.6609933,37.15462,23.60929,-27.20101,882.6523
4.920343399,-14.90098,83.22359,8.502157,0.3815309,-0.4110833,-0.3225688,13.56439,24.30478,0.1452966,882.6541
4.940165997,-25.0519,-126.0328,-6.977545,0.6878197,0.5860586,0.07772419,13.56439,24.30478,0.1452966,882.6541
4.959989071,-21.37764,98.01058,-5.203192,-0.2604863,0.3264339,-0.4889061,25.77294,26.16814,-11.02314,882.6541
4.979811668,2.598447,116.9803,6.911358,1.440055,-1.233245,2.647571,25.77294,26.16814,-11.02314,882.6541
4.999633789,105.8513,-53.62964,-1.042639,-0.1456368,-0.04001749,-2.165108,25.77294,26.16814,-11.02314,882.6559
5.021934509,340.8169,349.8606,3.179098,4.075687,-5.829758,-7.232901,12.88549,24.70605,2.268173,882.6559
5.041752815,-364.2668,1929.947,-304.9465,12.52638,-4.559593,-15.73358,12.88549,24.70605,2.268173,882.6559
5.061575413,-161.809,1930.124,34.9339,-7.801449,1.216676,-15.68831,3.957443,1.004696,56.34762,882.6559
5.081398487,135.1208,-354.6125,19.08709,1.931647,-2.721749,2.888222,3.957443,1.004696,56.34762,882.6523
5.101220608,458.7045,65.60883,-45.7074,0.5265923,1.78021,3.364229,3.957443,1.004696,56.34762,882.6523
5.121043205,99.4992,-98.63863,14.62062,-0.8303733,0.787622,-0.1850791,11.02892,-10.79805,29.08968,882.6523
5.140865803,480.501,-21.40462,-45.76858,0.3840497,3.616536,5.573525,11.02892,-10.79805,29.08968,882.6523
5.160687923,-620.9043,173.8307,-58.18905,-2.0235,2.86758,-1.927454,2.265385,19.71741,3.438133,882.6541
5.180511475,-200.5444,2.454858,48.51688,0.5475182,-1.780431,0.7563423,2.265385,19.71741,3.438133,882.6541
5.200333595,565.8808,60.36563,42.15368,1.537794,-1.537539,2.028256,2.265385,19.71741,3.438133,882.6511
5.220156193,-39.8112,56.83089,50.10768,0.7121462,0.8549976,0.5071353,-6.449224,24.00488,10.69208,882.6511
5.239974499,-160.8126,37.97896,13.51929,-1.239203,-1.286234,0.0683585,-6.449224,24.00488,10.69208,882.6511
5.259797573,22.838,65.84447,-5.325561,-1.127611,0.7730561,1.753597,-0.7909698,28.18731,2.474634,882.6511
5.279620171,-305.8524,-21.28679,-7.71176,0.4080631,0.1451948,-2.077372,-0.7909698,28.18731,2.474634,882.6511
5.301920414,618.8151,-143.353,46.80371,3.615065,3.152179,8.287135,-0.7909698,28.18731,2.474634,882.6511
5.321743012,-127.2461,-138.2277,21.65685,-0.5463763,0.7977268,-1.636235,-1.636295,1.50355,3.405937,882.6511
5.341565609,13.49667,-3.67202,2.81199,-1.208543,-0.6710242,-1.683119,-1.636295,1.50355,3.405937,882.6511
5.361387730,-449.958,137.7764,16.88445,3.193218,-3.571274,1.37137,-6.705639,37.12915,6.663922,882.6528
5.381210804,-517.8383,-63.82146,22.32988,0.2960121,0.8207519,1.160327,-6.705639,37.12915,6.663922,882.6528
5.401033402,-174.2641,-15.15991,-16.09405,0.3302018,-1.077375,-0.4826763,-6.705639,37.12915,6.663922,882.6546
5.420855999,-176.7551,-101.2308,-14.25851,2.077183,-0.3065434,4.662827,-8.472986,36.45432,8.827515,882.6546
5.440674305,-145.6173,-67.3562,8.318604,-0.1366318,-0.6430286,0.3519869,-8.472986,36.45432,8.827515,882.6564
5.460496902,44.32306,275.1009,42.52079,1.5678,-2.481263,-1.391624,-8.458857,23.75659,17.45978,882.6564
5.480319977,-806.61,1930.124,-634.1196,14.93599,6.359091,-15.56564,-8.458857,23.75659,17.45978,882.6564
5.500142574,-680.3774,1930.124,-32.06323,-2.074244,-3.73029,-15.70009,-8.458857,23.75659,17.45978,882.6564
5.519964695,-171.088,105.1979,30.52861,-4.616374,-0.6748888,-3.900074,-24.01931,25.38243,41.33188,882.6528
5.539787292,83.68121,113.5045,1.955406,0.3325427,-0.6646129,-0.2673113,-24.01931,25.38243,41.33188,882.6528
5.559609890,148.261,6.284156,-27.4132,0.04925765,0.1469146,-2.100008,20.97519,24.22671,2.553494,882.6546
5.581910133,-148.9802,27.37475,3.240283,-0.3014644,0.01632406,-0.36613,20.97519,24.22671,2.553494,882.6546
5.601733208,128.4573,65.60883,-13.58548,-0.2887272,-0.153005,-2.207842,27.2265,25.40788,-11.84742,882.6564
5.621555805,-155.4569,-26.1176,23.73712,0.4521396,-0.4673206,-0.4103486,27.2265,25.40788,-11.84742,882.6564
5.641374111,-37.13335,39.45177,-4.101869,-1.093893,0.8534596,-1.024427,27.2265,25.40788,-11.84742,882.6581
5.661196709,-67.52382,74.68132,-4.407792,0.05795505,-0.6450275,-0.3294146,22.04313,31.34849,-8.926041,882.6581
5.681018829,109.9615,-5.557213,-6.059776,0.4582241,0.1558135,-1.570368,22.04313,31.34849,-8.926041,882.6566
5.700841904,-58.05794,24.78261,10.94954,-0.0417338,0.3065149,-1.171316,22.48992,32.47628,-5.65546,882.6566
5.720664501,84.86444,-51.98009,-14.56444,-0.4476362,0.2926419,-1.098544,22.48992,32.47628,-5.65546,882.6566
5.740487099,-80.53941,32.44121,-11.32165,0.3851528,0.5811017,0.1703678,22.48992,32.47628,-5.65546,882.6566
5.760309219,33.67394,40.92458,-5.203192,-0.3998945,1.206986,-0.4150962,37.96347,19.17824,-26.2658,882.6566
5.780132770,85.54948,7.226753,14.37588,0.7563776,-0.6112018,-1.029709,37.96347,19.17824,-26.2658,882.6583
5.799954891,-23.24591,-142.8817,-2.327516,0.08670123,0.3621423,-1.854018,14.65672,26.11462,0.5271325,882.6583
5.819777489,-107.567,78.45171,11.13309,-0.2779614,0.1255674,-1.047169,14.65672,26.11462,0.5271325,882.6583
5.839595795,-32.21358,61.30823,3.056729,-0.2262381,-0.8571211,-2.149837,14.65672,26.11462,0.5271325,882.6583
5.861896515,49.11828,98.89426,4.341605,-0.5274392,-0.01651213,-1.658546,25.7771,25.80396,-11.01669,882.66
5.881718636,126.7136,0.8053137,-7.528206,0.01250569,0.1546745,-0.4157405,25.7771,25.80396,-11.01669,882.66
5.901541710,-98.84842,98.54079,54.20705,0.7253231,-1.895192,-1.909902,13.33243,22.90581,4.408421,882.66
5.921364307,-490.6862,1925.352,-606.2194,12.97852,7.950153,-15.73829,13.33243,22.90581,4.408421,882.66
5.941186905,-660.6984,1930.124,-94.10441,1.12716,-1.564145,-15.70812,13.33243,22.90581,4.408421,882.66
5.961009026,-137.5838,-60.87585,-10.58744,-2.590286,-1.623575,-4.355093,3.723783,-5.412726,71.65802,882.66
5.980831623,663.6534,-94.22021,-72.07796,1.9672,-0.02237997,3.515147,3.723783,-5.412726,71.65802,882.6566
6.000654697,219.006,-75.30936,0.8540833,-0.4399545,1.180096,0.7716433,16.81574,-5.460832,25.89178,882.6566
6.020477295,318.5223,-138.9935,-11.68876,0.05701718,-0.695945,-0.7637324,16.81574,-5.460832,25.89178,882.6583
6.040295601,118.0573,232.2128,-55.6193,1.10471,4.011622,4.108319,16.81574,-5.460832,25.89178,882.6583
6.060118198,-270.7912,21.60135,20.80026,0.2045748,-1.199956,-3.99055,2.184729,21.57287,1.289691,882.6567
6.079940319,574.7239,-131.2171,49.12873,1.493088,2.033547,6.45973,2.184729,21.57287,1.289691,882.6567
6.099763870,-85.1478,129.1163,29.12137,-1.827204,1.765386,-1.183422,-6.775351,25.49244,12.72626,882.6567
6.119585991,-346.2069,14.35514,-3.673577,-0.9394112,-1.072941,-3.20164,-6.775351,25.49244,12.72626,882.6567
6.141886711,155.2981,283.1719,36.76944,2.990445,-1.999098,0.4208216,-6.775351,25.49244,12.72626,882.6567
6.161708832,-109.1862,-138.9935,3.485021,0.9363526,0.2735803,0.8041657,-3.447447,27.48284,1.29438,882.6567
6.181531429,334.0289,-330.753,-1.838039,-1.864166,-2.289191,-0.101818,-3.447447,27.48284,1.29438,882.6585
6.201354027,216.3904,111.6193,-5.264376,-1.644702,3.848909,0.2660426,-2.051233,7.710069,4.112048,882.6585
6.221177101,-130.3598,34.44423,11.07191,-0.235149,-1.37165,-1.14404,-2.051233,7.710069,4.112048,882.6585
6.240995407,371.2074,-111.4815,-51.2752,-0.06635486,6.7074,6.997818,-2.051233,7.710069,4.112048,882.6585
6.260818005,-223.1504,6.873279,8.01268,-0.1700511,-0.03652655,2.546067,-7.080643,36.76507,6.242033,882.6552
6.280640125,-399.4525,27.37475,12.66271,-0.6044127,-0.8397024,-0.9302455,-7.080643,36.76507,6.242033,882.6552
6.300463200,-51.08308,-95.92866,6.238328,-0.6924109,0.2312211,2.035763,-8.800985,36.111,10.08526,882.657
6.320285797,-177.5024,-65.23536,25.38911,0.03446174,0.4343588,1.406226,-8.800985,36.111,10.08526,882.657
6.340108395,-153.9,116.4501,27.10228,-0.4918696,1.865435,2.401156,-8.800985,36.111,10.08526,882.657
6.359930515,463.7489,1930.124,-644.8269,12.78002,0.2087422,-4.763699,-8.724405,20.08571,19.64761,882.657
6.379753113,-261.3253,1930.124,-323.1796,4.962028,-3.598577,-15.71638,-8.724405,20.08571,19.64761,882.6534
6.399576187,-35.20281,992.358,83.69803,-5.296888,2.415883,-7.184932,-24.56035,20.85791,33.3926,882.6534
6.421876907,201.0706,81.8097,11.74494,0.324599,-1.422825,-0.3973234,-24.56035,20.85791,33.3926,882.6517
6.441695213,259.8587,21.30679,-4.040684,0.3686048,0.2676926,0.4573408,-24.56035,20.85791,33.3926,882.6517
6.461517811,-107.6916,-38.5481,4.280421,-1.216837,-0.2400674,-1.121512,28.65091,15.5909,-4.166184,882.6534
6.481339931,136.6154,41.39587,-12.17824,0.2588033,0.6097839,-1.178325,28.65091,15.5909,-4.166184,882.6534
6.501162529,-6.867436,23.54546,15.29365,-0.04043336,-0.2750626,-1.426386,26.47594,26.87555,-11.859,882.6534
6.520985603,2.9721,43.9291,12.96863,0.3856177,-1.815434,-2.73998,26.47594,26.87555,-11.859,882.6534
6.540808201,-4.750068,-172.8681,10.94954,0.2492427,-0.03782087,0.3384676,26.47594,26.87555,-11.859,882.6483
6.560630321,91.092,156.0981,-9.975591,-0.06579288,1.071229,-0.8525574,22.76876,32.06589,-8.953184,882.6483
6.580452919,-25.42555,9.111946,-5.509115,-0.1600968,-0.6053304,-1.825869,22.76876,32.06589,-8.953184,882.6501
6.600275516,120.237,37.15419,-13.83022,-0.3832401,0.746137,-1.201304,23.54141,32.80404,-7.300694,882.6501
6.620098591,-139.0784,-27.00129,32.5477,-0.6289943,-0.9255614,0.243546,23.54141,32.80404,-7.300694,882.6552
6.639916897,25.8895,316.3395,-6.977545,-0.5518015,0.2927859,-2.072803,23.54141,32.80404,-7.300694,882.6552
6.659739494,-67.8352,-61.22932,-15.23747,0.01191352,0.3407318,0.5390724,35.11871,14.16598,-22.75804,882.657
6.679561615,-28.72615,-47.2082,-5.080822,-0.5257756,1.034441,-0.03070134,35.11871,14.16598,-22.75804,882.657
6.701862335,-108.5011,78.39279,10.7048,-0.768959,-0.4442657,-1.868566,16.08777,27.17448,-0.391623,882.657
6.721684933,-153.1527,62.72212,20.12723,-0.04965704,-0.2564438,-0.8000088,16.08777,27.17448,-0.391623,882.657
6.741508007,112.3902,10.70258,-13.15719,-0.05144071,0.1390406,-1.420736,25.82197,25.09175,-9.697397,882.6588
6.761330128,29.19011,71.7357,-6.977545,-0.3696223,0.7228544,-0.6688252,25.82197,25.09175,-9.697397,882.6588
6.781152725,1.041558,124.6978,10.88836,0.698927,1.097677,0.8686413,25.82197,25.09175,-9.697397,882.6588
6.800975323,307.5618,1930.124,-744.9249,14.10584,2.480722,6.814036,11.53874,22.24726,7.817375,882.6588
6.820797443,-205.7132,1930.124,-302.6215,4.848212,-2.610783,-15.71641,11.53874,22.24726,7.817375,882.6519
6.840616703,48.99373,1250.217,123.0397,-3.899876,1.45192,-7.978491,6.749422,-5.050874,74.9539,882.6519
6.860439301,509.21,-154.8409,-49.07255,-0.7444792,-1.567342,5.51013,6.749422,-5.050874,74.9539,882.6501
6.880261421,134.4981,94.35802,-30.65598,-1.555284,0.5558283,-4.166096,6.749422,-5.050874,74.9539,882.6501
6.900084019,423.4566,103.2538,-40.1396,-1.146631,-1.729966,2.85769,22.49066,-3.805232,19.46255,882.6501
6.919906616,303.3893,80.98493,56.83799,2.0128,-3.45263,0.2855916,22.49066,-3.805232,19.46255,882.6501
6.939729691,-189.6461,70.55746,-125.6145,1.295699,-0.3680009,-2.563409,0.7005043,21.95359,0.8762479,882.6501
6.959552288,271.8156,-151.4829,54.26823,-2.226517,-4.310446,-2.26871,0.7005043,21.95359,0.8762479,882.6501
6.981852531,-85.02325,296.6628,-24.72108,1.696777,-0.8702038,-2.088192,0.7005043,21.95359,0.8762479,882.6519
7.001675129,-85.83283,173.1827,8.440972,0.3685453,0.3557272,2.291865,-7.848005,26.25338,14.04109,882.6519
7.021497250,551.4329,-213.3409,28.57071,2.83128,-2.419557,3.980751,-7.848005,26.25338,14.04109,882.6536
7.041316032,-39.37527,-14.74753,19.08709,-1.257002,2.060317,-1.897862,-4.939432,26.39608,0.03583097,882.6536
7.061139107,-123.9455,194.5089,24.53252,-2.077583,-1.671976,-2.216673,-4.939432,26.39608,0.03583097,882.6503
7.080961227,95.07764,188.2053,-35.85668,-1.958641,0.3317647,-1.275599,-4.939432,26.39608,0.03583097,882.6503
7.100783825,-222.4031,37.92005,-1.103824,0.5890179,0.7308218,1.683081,-3.945469,15.09251,4.888401,882.6503
7.120606422,153.6789,-84.38185,36.03522,0.6102356,0.3506232,2.763474,-3.945469,15.09251,4.888401,882.6521
7.140429497,-309.0907,150.4425,-38.9159,-0.8958551,1.966211,-3.749021,-6.717554,36.02585,5.812362,882.6521
7.160251617,-546.485,163.9923,11.56139,0.8969067,-1.250725,0.0538359,-6.717554,36.02585,5.812362,882.6538
7.180074215,-106.8197,33.44272,-27.53557,-1.277526,0.4399167,1.490663,-6.717554,36.02585,5.812362,882.6538
7.199896812,-82.90588,-113.0132,-13.83022,0.3417878,0.8979513,0.4778095,-9.8668,35.04489,10.93469,882.6556
7.219718933,-235.9792,102.2523,3.362652,1.41,0.3136601,1.234042,-9.8668,35.04489,10.93469,882.6556
7.242015362,1256.268,1800.34,-354.3837,4.978665,-2.046921,-5.72143,-16.70959,19.54107,24.85719,882.6556
7.261837959,-169.7803,1930.124,-255.1423,2.403131,-3.227618,-15.71058,-16.70959,19.54107,24.85719,882.6556
7.281661034,-48.84116,1285.564,72.3177,-4.859991,1.76575,-9.213285,-16.70959,19.54107,24.85719,882.6503
7.301483631,60.70153,-44.91062,55.73666,-0.1908981,-1.210343,0.005576907,-17.29835,19.2501,29.91679,882.6503
7.321306229,260.2946,-45.44083,14.49825,0.2316777,-0.1787442,0.604801,-17.29835,19.2501,29.91679,882.6521
7.341128349,74.21532,-77.78368,6.177143,-0.2225975,0.5332105,-0.7481228,36.26689,17.26599,-6.836278,882.6521
7.360950947,-29.66029,20.01072,11.13309,-0.447267,-0.7388019,-1.620689,36.26689,17.26599,-6.836278,882.6538
7.380774021,35.54221,-59.16739,2.261329,-0.2821839,0.4511597,-0.9581848,36.26689,17.26599,-6.836278,882.6538
7.400596619,44.94582,107.0831,-16.76708,-0.0905082,-0.106766,-2.313186,24.64524,26.53877,-11.81696,882.6505
7.420418739,-126.1251,-83.85164,9.542295,0.09633563,0.556442,-0.129209,24.64524,26.53877,-11.81696,882.6505
7.440237522,46.31588,90.11633,4.525159,-0.3343143,-0.6851919,-1.283363,23.14377,32.42997,-8.531296,882.6523
7.460059643,51.67158,52.70704,-7.834129,-0.7049971,-0.2083053,-1.116478,23.14377,32.42997,-8.531296,882.6523
7.479882717,100.5579,14.70861,-10.83218,-0.06278612,1.337462,-0.5614896,23.14377,32.42997,-8.531296,882.6541
7.499705315,-147.0497,-83.61599,21.53448,1.504819,-1.052818,-0.6893956,26.07638,33.88189,-10.29595,882.6541
7.519527912,68.6728,-22.58286,6.66662,-0.1732374,-1.00267,-0.1717065,26.07638,33.88189,-10.29595,882.6558
7.541828155,-51.70583,-106.3561,4.158051,-0.8027211,0.3864073,0.3953646,25.79421,6.65685,-17.83292,882.6558
7.561650753,9.324206,120.2205,-11.01573,-0.7965498,1.15344,-0.693824,25.79421,6.65685,-17.83292,882.6575
7.581472874,-52.95134,104.8444,-14.19733,-0.09939037,-0.0707214,-0.918708,18.22799,27.48042,-2.493671,882.6575
7.601296425,-159.0689,-41.37589,11.25546,0.1273893,-0.04248381,-0.5433275,18.22799,27.48042,-2.493671,882.6594
7.621118545,119.4896,-2.965073,-8.813084,-0.06810997,-0.1204574,-1.101215,18.22799,27.48042,-2.493671,882.6594
7.640937328,-50.08667,49.93816,10.15414,-0.06432267,-0.02106138,-0.9279022,23.64136,22.96582,-7.561893,882.6594
7.660759449,60.51471,3.456367,0.4869757,-0.028129,0.06555496,-1.551978,23.64136,22.96582,-7.561893,882.6594
7.680582046,757.5027,486.4782,50.96427,2.380394,-7.51718,-12.83414,10.18633,20.42909,11.23846,882.6628
7.700405121,-268.7361,1930.006,-299.8682,10.94749,-4.98278,-15.7298,10.18633,20.42909,11.23846,882.6628
7.720227718,-145.8664,1928.239,16.21142,-6.327124,2.52402,-14.55143,10.18633,20.42909,11.23846,882.6542
7.740049839,280.5965,-342.9479,35.85167,1.862519,-2.175876,5.927128,7.252462,-5.529777,66.54794,882.6542
7.759872436,302.2684,35.15117,-18.96973,0.06960597,1.381475,1.087419,7.252462,-5.529777,66.54794,882.656
7.779695034,172.4239,-262.7682,-35.06128,-0.7881929,-0.8838621,0.7740104,20.54219,-0.1068597,16.88196,882.656
7.799518108,341.5642,38.45026,12.35679,-0.2681662,-2.303746,-1.362055,20.54219,-0.1068597,16.88196,882.6578
7.821818352,-175.9455,368.7125,16.57853,-2.253337,4.836994,0.4543971,20.54219,-0.1068597,16.88196,882.6578
7.841636658,-200.918,-266.0674,15.29365,-1.3311,-3.680012,0.7684219,-0.4372425,23.0518,0.007317543,882.6595
7.861459255,-96.85561,86.93507,-41.54684,1.133446,-0.2116917,1.379454,-0.4372425,23.0518,0.007317543,882.6595
7.881281853,75.39856,36.97746,-23.06909,0.9011125,1.654733,2.183466,-9.297678,27.74739,15.28792,882.6613
7.901103973,186.9341,-196.3741,0.4257911,-3.231464,-3.752739,-1.030111,-9.297678,27.74739,15.28792,882.6613
7.920927525,-245.881,147.2023,-14.13614,-2.850694,0.8979671,-2.09736,-9.297678,27.74739,15.28792,882.6613
7.940749645,-86.58014,-152.6023,13.76403,-1.879835,4.030981,2.352489,-6.759817,24.23379,-0.2631068,882.6613
7.960572243,66.43089,66.49251,-36.28497,2.041006,-1.856496,2.77997,-6.759817,24.23379,-0.2631068,882.6631
7.980394840,-4.251863,16.59381,-11.81113,0.5900976,2.033723,3.751893,-5.06555,19.85865,6.070024,882.6631
8.000216961,4.279887,-70.2429,-1.226193,0.7405032,0.5201102,2.856024,-5.06555,19.85865,6.070024,882.6631
8.020040035,-221.9049,476.522,11.07191,3.72016,-1.013537,0.6889296,-5.06555,19.85865,6.070024,882.6631
8.039858818,-406.6142,-3.848757,50.78071,1.288934,1.232098,3.133729,-6.342278,35.29201,5.818153,882.6666
8.059680939,-214.5564,15.82795,12.23442,0.422242,-0.5670774,2.130632,-6.342278,35.29201,5.818153,882.6666
8.079503536,270.8815,-13.33363,16.51734,3.118253,-0.8856235,4.232003,-8.756891,34.2394,10.92732,882.665
8.101803780,-100.4053,77.80367,-7.71176,0.4673704,-0.7843977,-0.6458948,-8.756891,34.2394,10.92732,882.665
8.121626377,317.2768,660.3873,19.27065,2.30332,-1.598938,0.9911889,-8.756891,34.2394,10.92732,882.665
8.141511440,-466.7724,1930.124,-395.6221,10.49776,-0.7603548,-15.71276,-16.91919,19.25001,30.34513,882.665
8.161334038,-144.3718,1930.124,30.1615,-8.610905,0.7011363,-15.68629,-16.91919,19.25001,30.34513,882.6597
8.181156635,-171.9599,-156.1959,63.81303,-0.6756939,0.2112819,-0.418956,-0.8037319,21.89531,27.86403,882.6597
8.200978756,34.73263,37.74331,-10.64862,-0.4989698,1.554035,2.322729,-0.8037319,21.89531,27.86403,882.6597
8.220801354,149.0705,76.09521,-0.3084241,-0.9471951,0.6078455,-1.227256,-0.8037319,21.89531,27.86403,882.6597
8.240620613,-49.96212,35.97594,-0.9814546,-0.3461939,0.05226492,-0.234348,37.3416,22.76127,-7.827627,882.6597
8.260442734,-26.79561,-10.09346,-4.774899,0.1342391,-1.123983,-1.879073,37.3416,22.76127,-7.827627,882.6597
8.280265331,-88.1993,-0.4907565,-1.838039,-0.04072757,-0.1473863,-0.9609617,23.49536,26.5615,-11.35896,882.6614
8.300087929,-35.26509,112.6797,-7.589391,-0.2998593,1.099379,-0.3726763,23.49536,26.5615,-11.35896,882.6614
8.319910050,-53.26272,35.44574,14.13114,0.4043489,-1.227778,-0.5522397,23.49536,26.5615,-11.35896,882.6582
8.339733124,111.2693,10.11345,-5.386745,-0.3766747,-0.06669375,-1.14218,23.52293,32.42987,-8.102953,882.6582
8.362033844,-20.50578,-29.65234,-5.019638,0.3508114,1.133478,-0.993368,23.52293,32.42987,-8.102953,882.6599
8.381855965,-136.5251,-25.05718,-1.654485,0.1388995,-0.4886639,-0.8726857,27.50625,33.05016,-11.99007,882.6599
8.401678562,55.15901,-61.17041,-10.64862,0.6206671,0.09926969,-0.6934371,27.50625,33.05016,-11.99007,882.6617
8.421501160,-74.43641,1.453349,20.55552,-0.9632789,0.9109843,-0.2010898,27.50625,33.05016,-11.99007,882.6617
8.441319466,79.01054,-2.847248,-8.140053,0.6576025,-0.382058,-1.571628,17.78251,5.368474,-13.8546,882.6634
8.461142063,-3.193179,34.73879,10.27651,0.1284375,-0.3075303,-0.6136462,17.78251,5.368474,-13.8546,882.6634
8.480965137,-25.0519,-14.15841,2.567252,0.07796331,0.8636709,-1.209108,20.05065,27.44764,-2.964721,882.6634
8.500787735,36.28952,94.29911,-7.222283,-0.3163798,-0.6649001,-1.505606,20.05065,27.44764,-2.964721,882.6652
8.520609856,10.56972,-1.61009,18.04696,0.8539674,-0.5142589,0.009184413,20.05065,27.44764,-2.964721,882.6652
8.540432453,107.8441,-32.65687,10.76599,-0.3303079,-0.5685956,-1.340871,20.71389,22.2813,-7.492042,882.667
8.560255051,30.9961,131.4138,26.36806,1.143014,-1.76693,-2.350507,20.71389,22.2813,-7.492042,882.667
8.580078125,-343.8405,1922.76,-569.1415,12.25738,6.159152,-15.7361,9.196052,19.03032,14.6449,882.6687
8.599900246,-641.7043,1930.124,-66.75489,1.36712,-2.063406,-15.70853,9.196052,19.03032,14.6449,882.6687
8.619722843,-136.7119,-37.31094,-7.099914,-2.643801,-1.542431,-5.041213,9.196052,19.03032,14.6449,882.6602
8.639541149,983.8743,-124.7957,-76.36088,3.061842,0.705325,6.115061,10.67697,-12.11356,68.27968,882.6602
8.661841869,257.8036,-55.80939,46.80371,-0.5523291,1.235826,1.443262,10.67697,-12.11356,68.27968,882.6602
8.681663990,368.3427,-35.72031,-36.89682,0.3956224,-0.5350822,-0.4839441,20.11347,3.165473,15.96007,882.6602
8.701487064,-30.46987,372.8953,-150.5778,0.103627,2.619092,2.117505,20.11347,3.165473,15.96007,882.6602
8.721309662,-581.8575,-149.2443,38.05432,0.3114822,-1.307184,-0.7334935,-0.4559956,23.77555,-0.3788428,882.6602
8.741132259,313.2289,-139.7594,-2.3887,1.053875,1.644966,2.456551,-0.4559956,23.77555,-0.3788428,882.6602
8.760954380,-204.4055,-54.3955,-6.977545,0.3098506,-0.3067507,-1.955858,-0.4559956,23.77555,-0.3788428,882.6602
8.780776977,-8.797978,-97.87276,-21.11119,-0.3283164,-0.4648486,0.1373651,-10.05626,28.84551,14.84733,882.6619
8.800600052,-251.3612,-25.46957,-77.64575,0.02230117,-1.395755,2.627908,-10.05626,28.84551,14.84733,882.6619
8.820422649,-232.8654,112.7976,23.49238,0.8456844,-0.3929544,-0.6291653,-8.183336,21.28618,0.1913252,882.6619
8.840240955,594.0916,-402.5671,83.69803,3.833188,3.590286,12.1505,-8.183336,21.28618,0.1913252,882.6619
8.860063553,-29.72256,123.5785,-0.6755316,-1.405691,1.933462,-2.285845,-8.183336,21.28618,0.1913252,882.6636
8.879886150,-201.8522,185.0829,10.58243,-1.34118,0.0002732025,-0.3886245,-5.115807,23.19158,5.575401,882.6636
8.899709225,486.9776,-153.0736,-45.95213,1.269982,5.896532,9.435288,-5.115807,23.19158,5.575401,882.6655
8.922008991,-700.4302,1.453349,22.69699,-4.107,2.598493,-3.320383,-6.709249,35.29749,5.82527,882.6655
8.941832066,-344.5877,19.95181,-5.386745,0.1425575,-2.406878,0.1780291,-6.709249,35.29749,5.82527,882.6672
8.961654186,-106.0724,-123.3818,14.62062,-1.52321,0.2083378,0.758149,-6.709249,35.29749,5.82527,882.6672
8.981476784,-166.0437,-83.73382,17.19037,-0.2230853,0.5949764,1.168776,-9.482527,33.52199,10.95446,882.6672
9.001299381,-215.4905,213.6554,26.73517,0.05799813,-2.250648,-0.9342356,-9.482527,33.52199,10.95446,882.6672
9.021121502,-447.5915,1930.124,-754.2861,14.70977,1.569371,-14.00643,-15.65488,20.40374,36.5875,882.6656
9.040940762,-439.122,1930.124,-216.2289,2.201061,-1.811009,-15.71053,-15.65488,20.40374,36.5875,882.6656
9.060763359,-53.13817,643.0671,47.6603,-5.101666,1.58125,-6.567875,-15.65488,20.40374,36.5875,882.6603
9.080585480,70.79017,109.6163,23.37001,0.5995075,-1.294389,-0.4085312,-11.32834,30.41791,22.43945,882.6603
9.100408077,266.2731,-50.50729,0.8540833,0.1824264,0.4933283,0.5075073,-11.32834,30.41791,22.43945,882.6621
9.120230675,-106.1347,1.276612,14.74299,-1.15527,-0.2998836,-1.057468,35.0521,22.05132,-9.014999,882.6621
9.140053749,196.5245,14.53188,-2.327516,0.2562119,-0.8286286,-1.83778,35.0521,22.05132,-9.014999,882.6656
9.159876347,-31.59083,-49.80034,17.67985,0.4900133,0.07041973,-1.397065,35.0521,22.05132,-9.014999,882.6656
9.179698467,-41.55492,54.4744,22.94172,-0.1976985,-0.8598301,-2.631645,25.03042,28.00538,-10.60572,882.6673
9.199521065,-200.6689,-117.3138,2.506068,-0.6782983,-0.2362571,-0.04099064,25.03042,28.00538,-10.60572,882.6673
9.221821308,160.0311,41.33696,-20.62171,-0.4097326,0.7431707,-1.196453,23.54972,32.07568,-7.287786,882.6673
9.241640091,-17.95248,67.96532,-4.591346,-0.09419783,0.1625415,-0.6185371,23.54972,32.07568,-7.287786,882.6673
9.261462212,56.15542,-27.29585,5.87122,-0.6308486,-0.04467116,-0.2714927,23.54972,32.07568,-7.287786,882.6691
9.281285286,18.66554,20.4231,-3.918315,-0.2940014,-0.4513726,-0.2539546,29.2941,33.00201,-13.7053,882.6691
9.301107884,87.10636,143.0785,-24.65989,0.6526065,0.2358265,-3.86271,29.2941,33.00201,-13.7053,882.6709
9.320930481,-76.80288,-33.54055,-0.7979008,0.2760633,-1.050595,-0.6674029,11.9904,5.857213,-10.76115,882.6709
9.340752602,-65.34418,-131.276,-7.283468,-0.501968,0.5278812,-1.102797,11.9904,5.857213,-10.76115,882.6714
9.360575199,-166.8533,130.4713,0.3646065,-0.2792554,1.286132,-0.1831463,11.9904,5.857213,-10.76115,882.6714
9.380398274,-49.65074,35.97594,-4.591346,-0.1880819,-0.6709253,-1.890433,22.2198,28.13237,-3.891258,882.6731
9.400220871,33.98532,32.8536,20.73908,0.1349988,-0.3050832,-1.0638,22.2198,28.13237,-3.891258,882.6731
9.420043469,87.72912,14.88535,-1.593301,0.5836048,-0.7526527,-1.532081,17.81884,21.97709,-6.122262,882.6731
9.439865589,44.38534,-2.788336,-4.591346,0.6211647,0.2789917,0.1785308,17.81884,21.97709,-6.122262,882.6731
9.459683895,1429.269,1563.1,-462.1909,3.563505,3.630493,3.241264,17.81884,21.97709,-6.122262,882.6748
9.481984615,-269.8571,1930.124,-266.645,3.535432,-2.347339,-15.71345,8.631671,18.75012,20.57541,882.6748
9.501807690,46.19133,1245.21,98.81062,-4.527007,0.6653105,-8.448977,8.631671,18.75012,20.57541,882.6696
9.521630287,498.7477,-94.16129,-67.122,0.1351557,-1.36105,4.972183,1.10825,-6.493044,69.61211,882.6696
9.541452408,241.9857,-28.17953,15.17128,-1.31524,0.938228,-0.9832366,1.10825,-6.493044,69.61211,882.6681
9.561275005,250.8288,-175.3424,-46.74754,-4.0393,-2.685459,-3.235667,17.07898,5.727816,13.48349,882.6681
9.581097603,167.5664,30.02581,-8.017684,1.453634,-3.685941,2.084149,17.07898,5.727816,13.48349,882.6681
9.600919723,-337.7997,203.6992,-2.021593,-1.063839,0.3706882,-2.879017,17.07898,5.727816,13.48349,882.6681
9.620742798,28.13142,-161.0856,23.49238,-0.03464155,0.8342516,4.199515,-0.8063545,22.32431,-0.3459086,882.6681
9.640565395,-267.5529,4.5757,0.2422373,0.9259335,1.793934,1.892694,-0.8063545,22.32431,-0.3459086,882.6681
9.660383701,-71.44718,115.7432,22.75817,1.432698,1.353419,4.488083,-10.45834,29.93353,14.02637,882.6681
9.680206299,517.3682,-137.1084,25.08318,1.505243,2.402833,5.555009,-10.45834,29.93353,14.02637,882.6681
9.700028896,132.9412,97.42146,-0.2472395,-0.09724181,2.08206,-3.397494,-10.45834,29.93353,14.02637,882.6698
9.719851971,-276.2092,-58.99066,38.23787,1.217617,-1.282734,2.038977,-9.640631,18.38467,-0.5372829,882.6698
9.739674568,-249.8043,218.8986,27.04109,-2.047136,0.5954174,-2.763319,-9.640631,18.38467,-0.5372829,882.6716
9.761974811,-242.269,94.53476,24.2266,0.7677422,-0.6465389,1.186963,-4.749378,25.38194,6.400479,882.6716
9.781797409,512.0748,-314.7878,0.1810527,1.947862,1.24629,6.760598,-4.749378,25.38194,6.400479,882.6733
9.801619530,-310.7098,142.5483,-30.35006,-3.475777,1.358686,-2.508836,-4.749378,25.38194,6.400479,882.6733
9.821442127,-438.9352,89.99851,33.58784,2.95479,-0.2824885,4.798227,-6.005976,34.90698,4.573316,882.67
9.841264725,-93.555,-47.26711,5.442928,-2.116234,0.235291,-0.3768466,-6.005976,34.90698,4.573316,882.67
9.861083508,-274.2164,-79.72778,-23.98686,-2.624886,0.1664074,0.5035533,-9.492975,33.51738,10.58121,882.67
9.880906105,-110.4939,118.3942,5.259374,0.3944064,0.5024504,0.7536327,-9.492975,33.51738,10.58121,882.6718
9.900728703,380.4865,911.8839,-6.304514,3.073179,-6.380497,-8.038276,-9.492975,33.51738,10.58121,882.6718
9.920550823,-150.4748,1930.065,-234.7678,7.686223,-3.8234,-15.72261,-18.91184,22.73034,39.16231,882.6718
9.940373421,-200.918,1793.978,-28.88163,-5.858879,1.126464,-14.26574,-18.91184,22.73034,39.16231,882.6718
9.960196495,-83.40408,-117.1371,62.40578,0.9295622,-1.240544,-0.5726041,-17.53532,26.52675,24.31227,882.6683
9.980019093,-31.96448,-9.033037,-6.91636,0.4527807,0.07524695,0.2862463,-17.53532,26.52675,24.31227,882.6683
9.999841213,21.21883,-35.01336,-15.23747,-0.6942618,-0.2992611,-1.811316,-17.53532,26.52675,24.31227,882.6649
10.019663811,-31.6531,46.63907,-4.407792,0.5262184,0.5116581,-0.4773695,33.56724,18.34462,-11.03601,882.6649
10.041964531,32.61526,-58.40154,-0.002501063,0.3326502,-0.1025039,-2.87157,33.56724,18.34462,-11.03601,882.6649
10.061782837,-100.7167,77.33237,7.094912,0.09027247,-1.003892,-1.994893,24.28402,29.10887,-10.61084,882.6649
10.081604958,-96.29512,-90.15526,-3.918315,-0.8331506,1.362356,-0.9121653,24.28402,29.10887,-10.61084,882.6649
10.101428509,45.94223,133.6525,-11.38284,-0.3053276,0.5474119,-0.6722744,24.28402,29.10887,-10.61084,882.6649
10.121250629,52.10751,63.19342,0.6705295,-0.668007,-1.437249,-1.891494,23.56994,32.45062,-6.423318,882.6649
10.141073227,29.75058,3.574191,-8.201238,0.2205607,0.1482849,-1.061736,23.56994,32.45062,-6.423318,882.6649
10.160895824,-91.49991,-94.98606,4.40279,0.3790409,-0.07217652,-1.240177,29.20838,32.23215,-17.05166,882.6667
10.180717945,9.511032,68.96683,13.39692,1.243611,-0.539909,-1.08832,29.20838,32.23215,-17.05166,882.6667
10.200540543,-57.37291,-60.34564,12.54034,-0.6809298,-0.5468215,-1.765782,29.20838,32.23215,-17.05166,882.6667
10.220363617,149.1328,84.04837,-10.15914,-0.05639898,-0.209377,-1.502988,7.978546,5.590343,-7.751402,882.6667
10.240186215,-17.20518,-49.6236,7.890312,0.8024168,-0.7732582,-1.618778,7.978546,5.590343,-7.751402,882.6667
10.260004520,-193.3827,4.398963,7.951497,0.3077814,-0.18688,-0.389027,22.91476,28.47021,-5.156122,882.6667
10.279827118,57.15182,-5.321564,-0.7979008,-0.4327169,-0.304903,-1.105586,22.91476,28.47021,-5.156122,882.6684
10.299649239,42.33025,41.86717,-10.3427,-0.1651246,0.1057052,-1.199704,22.91476,28.47021,-5.156122,882.6684
10.321949959,75.52311,83.63599,-4.407792,-0.04662653,-0.361457,-1.283643,16.03341,21.66029,-4.462793,882.6684
10.341772080,304.8217,244.3487,26.85754,3.343411,-5.578683,-6.418641,16.03341,21.66029,-4.462793,882.6684
10.361595631,-342.844,1930.006,-295.9524,14.04493,-3.133805,-15.7375,6.583607,16.65479,25.26029,882.6669
10.381417751,-204.4677,1930.124,12.60153,-6.357233,1.556131,-15.69174,6.583607,16.65479,25.26029,882.6669
10.401240349,134.8717,-487.5186,40.68525,1.625049,-2.473152,3.149362,6.583607,16.65479,25.26029,882.6634
10.421062946,403.7152,75.80065,-36.71326,-0.6263129,1.58926,2.830136,-2.021132,-8.336834,64.22815,882.6634
10.440885067,257.9904,75.32935,-0.1248703,1.766522,-1.385847,2.432328,-2.021132,-8.336834,64.22815,882.6634
10.460704327,466.0531,-95.69301,-50.72453,1.873397,-0.6239393,-0.7128797,14.06617,9.458767,12.23064,882.6634
10.480526924,-301.6176,483.1202,-81.62275,1.781777,-1.9292,0.1128069,14.06617,9.458767,12.23064,882.6652
10.500349045,-395.5291,-90.39091,56.28733,1.480397,-1.638598,2.427316,14.06617,9.458767,12.23064,882.6652
10.520171642,46.81408,128.9984,-5.386745,-0.6109735,3.48198,0.9404048,-1.971619,21.54723,-0.7448459,882.6652
10.539994240,-97.60291,-135.9301,-42.28106,0.6624313,-0.919823,-2.15283,-1.971619,21.54723,-0.7448459,882.6652
10.559816360,-184.6641,-106.1205,15.53839,-1.03492,-3.783642,-3.452989,-12.30123,29.59137,13.63296,882.6652
10.579639435,263.533,331.6567,-13.95259,1.24701,0.7728964,4.179333,-12.30123,29.59137,13.63296,882.6652
10.601940155,-134.1586,58.3037,28.50952,0.04917814,1.361545,1.789974,-9.603525,16.20498,-0.06309748,882.6669
10.621762276,506.7813,32.97142,40.56289,2.987173,1.953766,4.700287,-9.603525,16.20498,-0.06309748,882.6669
10.641584873,-88.88433,-370.6367,-21.72303,1.41117,-0.6931295,-0.07776809,-9.603525,16.20498,-0.06309748,882.6636
10.661403179,-56.93698,52.88377,3.60739,-0.692169,0.5009293,-0.3615384,-5.50824,27.57797,6.37599,882.6636
10.681225777,-353.68,138.9546,-5.325561,0.4938158,1.951473,2.598063,-5.50824,27.57797,6.37599,882.6619
10.701048374,-468.7652,44.93061,6.054774,2.502966,0.4096754,3.131166,-6.356606,34.55366,5.022348,882.6619
10.720871448,-309.7134,23.13307,-9.975591,-2.442671,0.03174518,-1.016761,-6.356606,34.55366,5.022348,882.6636
10.740694046,421.1524,-19.10704,57.08273,0.212449,-1.03456,0.8627281,-6.356606,34.55366,5.022348,882.6636
10.760516167,-230.063,-32.53904,-10.28151,0.6809307,-0.7914215,0.2864521,-9.113546,32.41936,10.59346,882.6653
10.780338764,-190.518,324.2927,37.68721,1.246493,-4.08694,-1.608776,-9.113546,32.41936,10.59346,882.6653
10.800161362,-839.9274,1925.47,-706.8069,15.45659,6.604748,-15.74362,-21.12425,25.68664,39.9621,882.6653
10.819984436,-721.853,1930.124,-86.76225,-1.556308,-3.835307,-15.70126,-21.12425,25.68664,39.9621,882.6653
10.839806557,-140.6353,92.41392,20.49434,-4.752268,0.6887428,-3.304445,-21.12425,25.68664,39.9621,882.66
10.859625339,253.0707,26.72672,10.21533,-0.2221088,-1.143048,-0.4617475,-9.794374,19.38379,20.49058,882.66
10.881925583,93.58302,26.96237,-13.89141,0.101944,0.4151773,-2.185926,-9.794374,19.38379,20.49058,882.6602
10.901748180,-31.03035,39.39286,12.05086,-0.6203492,-0.07895605,-0.6613069,35.0102,20.50778,-11.1032,882.6602
10.921570301,34.91946,19.12703,-3.122915,0.1878949,0.0914145,-1.168431,35.0102,20.50778,-11.1032,882.662
10.941392899,-26.48424,17.35966,-1.470931,0.03013424,-0.1534065,-1.5305,35.0102,20.50778,-11.1032,882.662
10.961215496,34.10987,40.33545,-2.816992,-0.2733835,0.2299609,-1.393912,23.13025,28.39787,-10.5754,882.6638
10.981038570,-109.5598,-103.1749,27.65294,0.9502373,-1.373892,0.5618294,23.13025,28.39787,-10.5754,882.6638
11.000860691,66.55544,132.4743,-10.40388,0.1453368,-0.1301599,-2.435357,23.59498,32.09567,-5.67036,882.6638
11.020683289,77.26683,5.164823,-11.87231,0.360605,0.5443523,-0.7413326,23.59498,32.09567,-5.67036,882.6638
11.040505886,-19.6962,-75.25045,0.5481603,-0.09717515,1.12193,-1.079005,23.59498,32.09567,-5.67036,882.6673
11.060324192,-86.08193,121.6344,-14.38088,-0.12692,-1.09913,-0.4418677,30.25452,30.72748,-19.59775,882.6673
11.080147266,13.9326,131.8262,-22.45725,0.1384349,1.916822,-1.947973,30.25452,30.72748,-19.59775,882.6673
11.099969864,112.5148,60.42455,-3.367654,0.4585586,-0.3464406,-2.518383,6.511295,9.69968,-6.115366,882.6673
11.119792461,-63.22681,-120.2594,3.240283,-0.04261155,-0.5812268,-1.107843,6.511295,9.69968,-6.115366,882.6673
11.139614582,-175.1982,45.99104,24.04305,-0.4471505,-0.925731,-2.280996,6.511295,9.69968,-6.115366,882.6673
11.161915302,-36.32377,120.1616,1.894222,0.2448028,-0.40354,-0.8284204,24.40684,27.69904,-6.790297,882.6658
11.181737423,82.18659,-56.45743,-11.19928,0.1674767,0.1702457,-0.2628648,24.40684,27.69904,-6.790297,882.6658
11.201560020,43.13983,69.55595,3.60739,-0.6675104,0.300656,-1.333163,14.21075,21.69307,-3.991743,882.6675
11.221383095,-92.12267,74.91697,14.80417,1.463043,-0.8142568,-0.0515146,14.21075,21.69307,-3.991743,882.6675
11.241205692,-538.0156,1930.124,-706.2562,16.02293,1.253152,-15.74336,14.21075,21.69307,-3.991743,882.6675
11.261023998,-583.0408,1930.124,-203.7472,3.209666,-1.510729,-15.71295,5.53614,14.13274,26.19774,882.6658
11.280846596,25.51585,266.971,52.06559,-7.159631,1.912253,-5.385199,5.53614,14.13274,26.19774,882.6658
11.300668717,728.856,-281.2667,-90.49451,0.3597984,-1.852837,1.3573,-0.02943993,-10.65855,55.826,882.6622
11.320491314,95.94949,26.31433,-14.44207,-1.986816,-0.2972307,-2.846042,-0.02943993,-10.65855,55.826,882.6622
11.340314388,465.4926,-156.844,-84.37606,1.392483,-2.549245,-1.444354,-0.02943993,-10.65855,55.826,882.6639
11.360136986,-95.98375,-66.23687,-30.47243,0.1096924,1.47778,3.194324,12.91181,12.0137,11.33589,882.6639
11.379959583,-522.5712,109.2039,28.50952,-3.172533,2.01734,-2.093113,12.91181,12.0137,11.33589,882.6658
11.399781704,680.5924,-263.3574,45.94713,0.6999742,0.4055512,6.975866,-1.933607,22.35703,0.920805,882.6658
11.419604302,-406.6765,-40.72785,35.91286,-2.911417,2.30851,-1.550763,-1.933607,22.35703,0.920805,882.6675
11.441904545,-237.8474,-31.41971,7.951497,-2.080793,0.86464,-2.821743,-11.97711,29.20095,11.95266,882.6675
11.461723328,261.727,163.7567,-64.7358,0.9514245,2.406349,4.277705,-11.97711,29.20095,11.95266,882.6675
11.481545448,-7.365641,-98.22624,45.21291,1.01007,1.553698,4.48948,-11.97711,29.20095,11.95266,882.6675
11.501368523,38.28233,-117.4316,5.626482,-1.576119,-4.407791,-1.42498,-10.99478,11.50255,0.8579907,882.6659
11.521191120,63.56621,399.2291,-44.05541,2.189272,0.4195102,-5.086474,-10.99478,11.50255,0.8579907,882.6659
11.541013718,-245.6942,186.7914,2.567252,0.8758408,-1.005802,0.8104268,-5.178375,29.75219,5.894686,882.6677
11.560835838,115.0681,53.41398,-9.669668,1.492434,-0.6034523,1.418486,-5.178375,29.75219,5.894686,882.6677
11.580658436,-482.9017,-10.38802,-39.71131,-1.706956,3.215662,-3.487488,-5.178375,29.75219,5.894686,882.6695
11.600481033,-521.2011,92.8263,14.86536,1.026935,-1.545988,2.631856,-6.354465,35.28663,5.382693,882.6695
11.620304108,-57.87111,-67.59185,-8.935452,0.05157064,0.5721944,2.800136,-6.354465,35.28663,5.382693,882.6695
11.640126228,-126.7479,6.63763,-5.264376,0.2456754,0.5430053,-2.000494,-8.371294,31.68005,10.59213,882.6695
11.659945011,-182.0485,153.9183,-4.346607,1.389851,1.206049,3.241728,-8.371294,31.68005,10.59213,882.6678
11.679767132,1137.944,1835.039,-486.9095,6.860121,-0.9504498,-1.1414,-8.371294,31.68005,10.59213,882.6678
11.699589729,-235.1696,1930.124,-312.0439,4.087954,-4.994098,-15.71348,-20.68777,23.88178,41.7291,882.6661
11.721889973,-64.59687,868.112,57.20509,-5.699264,1.939662,-7.774788,-20.68777,23.88178,41.7291,882.6661
11.741712570,97.94231,-26.47108,20.43316,0.7144923,-1.102521,1.158966,-1.254175,23.95354,12.64531,882.6627
11.761535644,174.9149,26.54998,6.483066,-0.1201971,0.00664125,-0.8712745,-1.254175,23.95354,12.64531,882.6627
11.781358242,-1.698566,-66.82599,24.28778,-0.6876636,0.5550122,0.2964022,-1.254175,23.95354,12.64531,882.6661
11.801180839,11.6284,-63.35017,3.056729,-0.07048219,-1.087317,-0.7350699,34.98017,24.21565,-10.73336,882.6661
11.821002960,98.44051,-8.8563,-12.91245,0.06779403,1.061991,-1.263733,34.98017,24.21565,-10.73336,882.6646
11.840825558,-50.7717,111.5015,12.17323,0.1645736,-0.01353969,-2.00589,23.47258,29.47954,-11.03734,882.6646
11.860643864,-235.7301,-76.66434,23.24765,-0.3727984,-0.5798886,0.257219,23.47258,29.47954,-11.03734,882.6664
11.880466938,98.62734,72.14809,-14.19733,-0.633807,-0.0323212,-1.234975,23.47258,29.47954,-11.03734,882.6664
11.900289535,97.07045,58.53935,-14.01377,-0.2959577,0.5668162,-1.619506,23.27704,31.02476,-4.337497,882.6664
11.920112133,11.00565,24.54696,3.729759,0.1947917,-0.1072021,-1.178445,23.27704,31.02476,-4.337497,882.6664
11.939934254,-24.67824,-53.98311,27.34701,0.1594124,-1.496647,-1.760262,30.9069,29.58248,-22.95189,882.6681
11.959756851,1.85114,66.37469,8.073865,-1.099821,0.1157012,-0.05113398,30.9069,29.58248,-22.95189,882.6681
11.979579449,-20.75488,-45.67648,-4.101869,-1.042961,0.2115751,0.2173524,30.9069,29.58248,-22.95189,882.6698
12.001879692,-41.24354,70.79311,3.423836,-0.7012826,-0.001665725,-0.8450285,6.54155,14.10519,-3.331217,882.6698
12.021702290,-58.92979,27.31584,-22.70199,0.6518843,1.044106,-0.9164605,6.54155,14.10519,-3.331217,882.6716
12.041525364,-127.5574,36.32942,10.82717,0.1846365,-1.106548,-1.902659,25.4649,27.29767,-8.484831,882.6716
12.061343670,29.99969,-80.96494,-9.42493,-0.2581225,0.6242962,0.2925164,25.4649,27.29767,-8.484831,882.6683
12.081166267,-20.81716,77.56802,-6.059776,-0.2522193,0.3350083,-1.568779,25.4649,27.29767,-8.484831,882.6683
12.100988865,23.95896,95.77191,-26.74017,0.2778617,0.4315512,-0.2167461,13.86198,23.17064,-2.766268,882.67
12.120810986,1563.846,984.1103,-158.7765,1.230067,-1.220531,-5.852842,13.86198,23.17064,-2.766268,882.67
12.140633583,-227.0115,1930.124,-220.7565,5.7672,-4.494531,-15.7108,6.947916,12.78948,36.71547,882.6683
12.160456657,-122.6377,1781.37,54.45179,-3.386051,1.388998,-10.40753,6.947916,12.78948,36.71547,882.6683
12.180279255,404.7739,-155.9603,35.79049,0.1400722,-1.986829,6.069924,6.947916,12.78948,36.71547,882.6648
12.200101376,0.2942515,139.7794,-21.60066,-0.2399827,1.613767,0.3486912,-5.177622,-7.658414,56.68273,882.6648
12.219923973,425.5117,-205.9179,-63.5733,2.021681,-2.233529,2.546915,-5.177622,-7.658414,56.68273,882.6617
12.239746571,520.5443,-154.2518,4.769897,0.2510082,0.4189832,2.045021,9.484016,14.59781,10.11179,882.6617
12.259564877,-453.8813,422.3816,7.645574,-0.6103211,2.343991,-3.827368,9.484016,14.59781,10.11179,882.6634
12.281865120,87.35547,-61.87736,47.84385,1.26194,-1.365394,2.070025,9.484016,14.59781,10.11179,882.6634
12.301688194,-29.34891,30.4971,-21.53948,-1.405593,1.959004,0.8785183,-2.998732,21.23023,1.77131,882.6634
12.321510792,-118.3407,13.11798,7.706758,2.055797,-0.9043137,2.035493,-2.998732,21.23023,1.77131,882.6634
12.341333389,563.0784,-192.4859,32.67007,0.7643778,1.061133,7.866223,-11.29018,29.16924,10.25879,882.6652
12.361155510,-66.77651,-45.55865,-6.610437,-2.068091,2.15878,0.958046,-11.29018,29.16924,10.25879,882.6652
12.380978108,-327.5243,72.44265,18.6588,-0.304845,-1.72705,-1.014959,-11.29018,29.16924,10.25879,882.6652
12.400800705,256.1844,62.48647,-68.03977,-1.508207,5.602147,4.230254,-11.29876,5.984644,0.962996,882.6652
12.420623303,-200.1084,-152.6612,-27.71912,1.608783,0.2110001,0.5971955,-11.29876,5.984644,0.962996,882.667
12.440446377,126.7759,-179.9376,23.92068,-1.7672,-1.352901,1.304603,-5.1828,31.21429,6.304331,882.667
12.460264683,23.46075,351.1567,-67.9174,-0.7121329,2.900468,0.4389535,-5.1828,31.21429,6.304331,882.6672
12.480087280,-499.6539,-15.101,17.43511,1.306595,0.4826657,0.5877578,-5.1828,31.21429,6.304331,882.6672
12.499909401,-210.5707,98.89426,7.46202,-0.8321504,-0.4835455,-0.8972606,-5.635122,35.63525,4.98875,882.6672
12.519731998,251.327,7.874788,-35.24483,-0.9756041,0.3286257,1.810362,-5.635122,35.63525,4.98875,882.6672
12.539554596,-249.8666,132.7099,10.76599,-0.3372089,-0.0294937,0.2924118,-10.23856,31.32712,9.327789,882.6672
12.561854839,343.6193,729.3736,12.66271,1.951177,-5.666347,-6.658185,-10.23856,31.32712,9.327789,882.6689
12.581677437,-147.9838,1930.006,-265.6049,8.859019,-3.817342,-15.72532,-18.26696,23.21355,49.22655,882.6672
12.601500511,-179.1216,1864.908,-11.56639,-6.514349,1.332114,-15.12481,-18.26696,23.21355,49.22655,882.6672
12.621322632,-191.4521,-128.2126,47.35437,1.33668,-1.406857,0.7706913,-18.26696,23.21355,49.22655,882.6672
12.641145229,-27.48064,-73.36526,-12.66771,0.3096682,0.3168585,-0.4605306,0.6093998,33.06123,14.99774,882.6622
12.660963535,-125.191,54.88679,4.769897,-1.664345,0.3284595,-1.282982,0.6093998,33.06123,14.99774,882.6622
12.680786133,47.49911,-31.36079,-17.56248,0.2892527,-0.05123167,-1.290257,32.36463,23.13533,-12.77927,882.6656
12.700608730,-38.19204,-3.318546,2.873175,-0.701453,0.8928812,-1.888747,32.36463,23.13533,-12.77927,882.6656
12.720431805,-162.7431,13.94275,7.523204,0.07928165,0.05270878,-1.603941,32.36463,23.13533,-12.77927,882.6674
12.740254402,-108.9371,135.7734,-15.78813,-0.1804968,0.3192698,-1.198295,23.11364,29.85459,-10.60121,882.6674
12.760076523,66.11951,25.07718,-11.19928,0.4139172,-0.9822217,-1.222751,23.11364,29.85459,-10.60121,882.6692
12.779899120,11.44157,-3.318546,11.98968,-0.5180473,-0.3258943,-1.777237,22.52675,31.39451,-4.765176,882.6692
12.799721718,22.40207,55.8883,2.995544,-0.127773,0.2709795,-1.511583,22.52675,31.39451,-4.765176,882.6658
12.819543838,-162.9922,-111.3637,10.27651,-0.02147974,0.5637315,-0.2951067,22.52675,31.39451,-4.765176,882.6658
12.841844559,107.9064,-37.54659,-7.71176,0.396057,-0.423721,-2.327147,31.94675,27.70902,-25.86479,882.6677
12.861662865,-127.682,77.27346,18.47525,-0.1708302,-0.8126355,-2.028346,31.94675,27.70902,-25.86479,882.6677
12.881485939,76.76862,-2.434862,-3.795946,-0.32045,-0.1632577,-0.8118612,8.010759,18.11,-1.751049,882.6694
12.901308537,-30.40759,88.34897,-1.165008,0.2201057,-0.04584851,-1.550604,8.010759,18.11,-1.751049,882.6694
12.921130657,-126.3742,-46.85472,-15.1151,0.4872063,0.1832139,-0.1788473,8.010759,18.11,-1.751049,882.6694
12.940953255,35.41766,92.70847,-1.532116,-0.3379008,-0.6343912,-1.551536,24.71877,27.30325,-8.906056,882.6694
12.960775852,86.67043,-0.9031425,1.465929,0.7620702,0.1620957,0.3262103,24.71877,27.30325,-8.906056,882.6678
12.980597973,14.1817,-7.324582,2.077775,-0.2156867,-0.4309037,-1.461372,13.5135,23.55029,-1.956891,882.6678
13.000420570,305.7558,171.7688,31.01809,0.8528881,-0.9832356,-4.107518,13.5135,23.55029,-1.956891,882.6696
13.020243645,-606.83,1930.124,-420.2795,11.9447,-1.476976,-15.40703,13.5135,23.55029,-1.956891,882.6696
13.040066242,-341.7231,1930.124,20.18842,-6.878254,-1.56147,-15.68963,2.475065,8.539003,45.72017,882.6661
13.059884548,-95.04961,-401.9191,-0.7979008,-2.523579,-1.179089,1.155455,2.475065,8.539003,45.72017,882.6661
13.079707146,625.3539,35.68139,-44.66726,1.094364,2.798058,4.680469,-6.813051,-8.442488,50.44103,882.6609
13.099529266,159.5328,-113.19,-34.75535,0.04529878,-1.940234,-4.198751,-6.813051,-8.442488,50.44103,882.6609
13.121829987,637.56,-109.8909,-42.83172,0.1460564,1.205405,2.129793,-6.813051,-8.442488,50.44103,882.6609
13.161550999,-512.358,-221.5296,23.79831,0.189479,-1.193288,0.3308034,6.478462,17.53893,8.810717,882.6627
13.181374073,112.4525,-51.39097,-54.27324,-0.6203794,2.802046,3.623254,-4.421745,20.53992,3.119071,882.6627
13.201196194,67.73867,2.160296,32.91481,0.08247547,0.9426076,0.840421,-4.421745,20.53992,3.119071,882.663
13.221018791,22.77572,-159.1415,12.78508,0.686675,-1.568761,1.486714,-4.421745,20.53992,3.119071,882.663
13.240841389,11.19247,288.8864,-19.82631,0.5415392,2.132483,0.9491517,-6.945454,27.97944,7.642182,882.6647
13.260659695,-22.80998,-138.1099,8.80808,-1.074749,1.015649,-0.07827231,-6.945454,27.97944,7.642182,882.6647
13.280482292,315.5331,-104.6477,-15.66576,-0.3030515,-0.05300446,0.5130987,-9.410189,2.320837,1.427409,882.6664
13.300305367,51.29792,86.81725,-20.49934,-0.745243,1.489002,2.62261,-9.410189,2.320837,1.427409,882.6664
13.320127487,-60.67351,84.51967,-9.853222,-0.8391988,-1.614408,-2.410141,-9.410189,2.320837,1.427409,882.6683
13.339950085,-81.09989,8.876297,31.07927,0.7572091,0.1834233,-0.1282321,-5.92532,33.05152,6.721757,882.6683
13.359772682,-328.7697,10.23128,3.974498,0.2277057,1.860659,0.495988,-5.92532,33.05152,6.721757,882.6666
13.379594803,-234.7337,43.98802,-6.304514,0.5215824,-0.8576345,2.622766,-5.96312,35.29192,6.246496,882.6666
13.401895523,-17.89021,-84.08729,50.23005,1.90826,-4.668355,4.586918,-5.96312,35.29192,6.246496,882.6684
13.421718121,-217.4211,63.84146,-24.96582,0.5400126,-0.1706133,-1.673418,-5.96312,35.29192,6.246496,882.6684
13.441540241,-127.2461,242.9348,1.955406,2.692299,-4.021658,-1.87695,-9.074026,29.87472,11.01189,882.6702
13.461358547,-758.1596,1919.637,-802.8667,15.91501,2.519778,-15.74348,-9.074026,29.87472,11.01189,882.6702
13.481182098,-619.8456,1930.124,-140.2988,0.3245762,-2.63533,-15.70595,-22.77938,26.5254,46.70332,882.6666
13.501004219,-67.5861,214.7158,27.4082,-6.291687,2.4119,-3.84108,-22.77938,26.5254,46.70332,882.6666
13.520826816,156.2945,41.27805,23.98186,0.441927,-1.21452,-0.8813139,0.2258148,34.52342,14.97904,882.6633
13.540649414,42.39252,73.97437,-15.23747,-0.3423353,-0.06573586,-0.6648262,0.2258148,34.52342,14.97904,882.6633
13.560471535,-20.06985,-22.70069,-2.205146,-0.1277621,0.3089571,-0.2028436,0.2258148,34.52342,14.97904,882.6669
13.580294132,83.12073,-2.493774,8.440972,0.4962754,-0.6279144,-1.570226,30.54612,22.80393,-12.30176,882.6669
13.600117206,-95.04961,1.806823,22.88054,-0.2761691,-0.4822683,-0.6476177,30.54612,22.80393,-12.30176,882.6669
13.619939804,150.8143,73.97437,0.9764525,-0.1269086,-0.6235597,-3.448351,23.12168,30.22415,-10.1722,882.6669
13.639761925,-196.3719,-131.6295,24.96081,0.4813277,-0.5367656,0.5305831,23.12168,30.22415,-10.1722,882.6686
13.659580707,110.7711,47.16928,-3.795946,-0.03935947,-0.1328521,-0.9667155,23.12168,30.22415,-10.1722,882.6686
13.681880951,10.75654,32.97142,0.05868353,-0.6742036,0.7712279,-0.5101088,22.54725,30.67153,-4.316807,882.6686
13.701703548,3.968509,-51.15532,8.563341,-0.4104518,0.7148831,-0.5892361,22.54725,30.67153,-4.316807,882.6686
13.721525669,74.09077,60.12998,-10.77099,-0.2356588,-0.06725147,0.8060154,32.30568,27.33398,-26.30091,882.6653
13.741348267,55.15901,106.1994,-13.70785,0.5813661,0.05434625,-2.980415,32.30568,27.33398,-26.30091,882.6653
13.761170864,-26.48424,-70.12508,2.873175,0.9322637,-0.3440744,-0.5575491,32.30568,27.33398,-26.30091,882.667
13.780993938,-46.84834,-41.67044,-3.551208,-0.9239835,0.2706934,-1.557631,8.748583,18.83278,-1.342732,882.667
13.800816536,-131.2317,24.2524,4.586344,-0.1040091,0.4930576,-0.07365758,8.748583,18.83278,-1.342732,882.6688
13.820638657,-35.76329,91.53023,1.894222,-0.3707845,0.1215328,-2.212522,25.07771,26.92821,-9.34218,882.6688
13.840461254,29.50148,36.68289,7.278466,0.5524983,0.4956931,-0.6416779,25.07771,26.92821,-9.34218,882.6688
13.860279560,27.32184,12.88233,-5.631484,1.235234,-0.9998742,-0.8937445,25.07771,26.92821,-9.34218,882.6688
13.880102158,123.7867,9.229771,-4.530161,0.255568,0.5352947,-0.2416262,12.81196,23.94157,-0.6427269,882.6706
13.899924755,1299.798,1631.674,-457.0515,4.753396,4.153627,6.976418,12.81196,23.94157,-0.6427269,882.6706
13.919747829,-192.2617,1930.124,-273.3753,3.581278,-5.066632,-15.71181,2.344481,8.481356,41.05452,882.6706
13.939569950,-56.68787,1575.295,62.03868,-3.910545,1.754712,-8.412411,2.344481,8.481356,41.05452,882.6653
13.961870670,476.7022,-40.13873,-46.93109,-0.181526,-1.512149,5.055325,2.344481,8.481356,41.05452,882.6638
13.981692791,121.607,30.14363,-12.54534,-0.6946012,0.8625966,-2.023317,-6.632256,-6.700089,44.49181,882.6638
14.001515388,406.9536,-189.7759,-50.41861,2.240655,-0.8140222,4.978172,-6.632256,-6.700089,44.49181,882.6638
14.021337986,-170.5276,-38.90157,-68.83517,0.6410196,1.005765,-0.5778633,5.748672,17.18571,8.831408,882.6655
14.041160107,-466.3365,244.9967,12.96863,-2.060865,0.1339549,-3.631822,5.748672,17.18571,8.831408,882.6655
14.060978889,79.6333,-158.6113,20.37197,0.9104085,-2.151985,2.857372,5.748672,17.18571,8.831408,882.6672
14.080801010,59.14464,269.3275,0.9152678,2.398836,-1.594874,0.1572549,-4.776527,20.55079,3.561651,882.6672
14.100624084,-102.8963,77.86258,19.51538,1.173574,0.7292848,1.36041,-4.776527,20.55079,3.561651,882.6691
14.120446682,608.9132,-56.28069,50.0465,2.34799,0.9664544,6.501166,-7.671362,28.35996,8.085424,882.6691
14.140269280,-194.6905,101.6631,35.54575,-2.035507,0.9066089,-1.397222,-7.671362,28.35996,8.085424,882.6708
14.160091877,-56.43877,-142.057,27.34701,-1.217628,1.772107,1.710414,-7.671362,28.35996,8.085424,882.6708
14.179913998,212.218,121.7522,-72.32269,-0.8952472,0.6818638,2.721362,-9.418222,1.951277,0.9984021,882.6725
14.199736595,-103.27,8.346087,-2.143962,2.449286,0.06091749,3.812344,-9.418222,1.951277,0.9984021,882.6725
14.219559193,-3.691384,-17.22185,29.54966,-0.9934976,1.121378,2.601743,-5.92532,33.05152,6.721757,882.6725
14.241859436,-342.5949,-5.557213,-64.00159,-1.774377,1.863048,-0.6410128,-5.92532,33.05152,6.721757,882.6725
14.261677742,-480.7221,19.24486,-15.78813,0.8972458,-0.3466378,1.362321,-5.92532,33.05152,6.721757,882.6744
14.281500816,-137.4592,41.16022,-18.96973,-1.356794,-0.9054772,-4.24083,-4.874393,35.2701,5.789681,882.6744
14.301323414,-10.47942,-107.3576,-23.80331,-0.4167885,1.121846,6.084187,-4.874393,35.2701,5.789681,882.671
14.321146011,-275.8355,42.92759,-9.057822,-0.7862673,-0.428969,0.07424398,-8.350531,29.85915,10.6244,882.671
14.340968132,140.8502,714.9401,12.2956,1.874049,-2.783456,-1.291202,-8.350531,29.85915,10.6244,882.6727
14.360790730,-149.5407,1929.947,-271.2338,9.193103,-2.048781,-15.72661,-8.350531,29.85915,10.6244,882.6727
14.380613327,-175.6342,1920.992,-8.140053,-6.356591,2.378006,-14.99427,-25.05915,27.25589,44.24477,882.6692
14.400435448,-180.118,-153.0736,74.09205,0.4806369,-0.4378343,-0.476986,-25.05915,27.25589,44.24477,882.6692
14.420258522,-60.29986,-25.58739,-1.470931,-0.1123499,0.881076,1.212971,-7.560999,28.04267,11.88661,882.6692
14.440081120,-67.02562,24.48805,-0.4307932,-1.557152,0.4969918,-0.8953942,-7.560999,28.04267,11.88661,882.6692
14.459899425,-10.66624,20.24637,-3.612392,0.3131838,0.2034555,-0.9542201,-7.560999,28.04267,11.88661,882.6727
14.479722023,-24.42914,17.94879,-0.4307932,-0.5795403,-0.6000493,-1.20285,31.65507,23.15705,-11.89411,882.6727
14.499544620,-50.33577,-56.69308,-5.44793,0.5019492,-0.2205455,-0.9918838,31.65507,23.15705,-11.89411,882.6714
14.521844864,-151.1599,37.50766,6.788989,-0.4828788,1.273403,-1.796463,22.39189,29.87092,-10.15152,882.6714
14.541667461,18.10506,154.9788,-7.772944,0.1284283,-0.9959132,-1.337974,22.39189,29.87092,-10.15152,882.6733
14.561490059,98.68961,-6.617634,1.465929,-0.2523452,-0.4158857,-1.699769,22.88569,31.01947,-5.201301,882.6733
14.581312179,-18.69979,-19.93181,0.7317141,-0.1739509,1.129475,-0.7062693,22.88569,31.01947,-5.201301,882.6733
14.601135254,-79.72983,-13.80493,1.955406,-0.001649605,-0.1330756,-1.283814,22.88569,31.01947,-5.201301,882.6733
14.620957851,-14.21595,-35.01336,3.546206,1.17352,-0.6010253,-0.4363983,32.67265,27.3285,-26.30803,882.6767
14.640780449,-70.1394,-24.23241,12.35679,-0.5405904,0.3082816,-0.6127599,32.67265,27.3285,-26.30803,882.6767
14.660598755,139.916,-3.554195,-3.9795,0.5524606,-0.8509054,-1.477868,8.006607,18.47418,-1.757503,882.6803
14.680421352,-26.79561,-25.88195,15.59957,-0.2068261,0.1220719,-0.09821258,8.006607,18.47418,-1.757503,882.6803
14.700243473,-20.56806,-7.442406,2.689621,0.3365096,0.4939837,-1.285258,8.006607,18.47418,-1.757503,882.6787
14.720066070,-51.64355,55.82938,7.829127,-0.7502414,-0.6179396,-1.74932,24.70029,26.92908,-9.708315,882.6787
14.739889145,31.30747,9.877806,-7.650576,0.2522173,-0.08736651,-0.3903644,24.70029,26.92908,-9.708315,882.6804
14.759711742,89.72194,8.640648,8.257419,-0.424652,-0.3527952,-2.187357,12.7754,23.92543,-1.94911,882.6804
14.779533863,-41.24354,182.0195,63.14,0.5269088,-1.144585,-3.248105,12.7754,23.92543,-1.94911,882.6822
14.801834583,-678.5715,1930.124,-550.6027,12.78504,1.005983,-15.40443,12.7754,23.92543,-1.94911,882.6822
14.821656704,-472.1281,1930.124,4.158051,-6.838453,-3.232709,-15.68923,5.252497,9.950325,40.59743,882.6769
14.841479301,-156.4533,-335.5838,-34.32706,-0.6447217,-2.25894,0.8894894,5.252497,9.950325,40.59743,882.6769
14.861297607,888.7795,-6.853283,-30.41125,0.8150462,3.540838,5.121457,-2.068405,-11.45328,48.28503,882.6736
14.881120205,11.69068,-83.38034,-9.180191,-1.265139,-1.060431,-2.207236,-2.068405,-11.45328,48.28503,882.6736
14.900942802,301.2097,-175.5191,-27.90268,0.650912,-1.519063,-1.55835,-2.068405,-11.45328,48.28503,882.6736
14.920764923,256.8695,516.6414,-116.192,2.473511,1.656237,1.911187,7.218571,16.06665,8.449045,882.6736
14.940588474,-315.3182,-77.31238,31.56875,-0.8733471,1.202289,0.2051774,7.218571,16.06665,8.449045,882.6754
14.960410595,373.4493,39.39286,47.23201,0.8496388,0.1091754,3.410423,-4.430052,21.26828,3.106164,882.6754
14.980233192,-123.5718,-88.85918,-57.63839,0.008463616,2.03594,0.6597376,-4.430052,21.26828,3.106164,882.6772
15.000055790,-138.5179,142.0181,2.689621,0.6052821,1.386163,2.283354,-4.430052,21.26828,3.106164,882.6772
15.019877911,595.8976,177.8956,-93.98204,0.3565146,2.463196,2.507724,-8.026144,28.37082,8.528002,882.6789
15.039700508,18.79009,-69.12357,11.5002,1.210675,0.6494116,1.423558,-8.026144,28.37082,8.528002,882.6789
15.059518814,267.7054,-118.8455,29.73321,1.573682,-2.520203,2.852117,-9.801535,2.315555,0.5636048,882.6756
15.081819534,240.8647,237.6327,-27.84149,-0.2170174,3.164783,2.24355,-9.801535,2.315555,0.5636048,882.6756
15.101641655,-104.4532,-22.99525,-2.878177,-1.12073,-0.7651705,-3.855447,-9.801535,2.315555,0.5636048,882.6773
15.121464729,284.6444,36.97746,-30.71717,1.032708,2.710687,6.393075,-5.554195,32.68187,6.721094,882.6773
15.141287327,-342.2835,-79.60995,54.14587,-3.497936,2.485854,0.418694,-5.554195,32.68187,6.721094,882.679
15.161109924,-397.8956,99.60121,4.035682,-0.06455223,-0.9861897,0.6445103,-6.354465,35.28663,5.382693,882.679
15.180932045,56.84045,-236.081,1.34356,0.1246447,0.3543575,1.277704,-6.354465,35.28663,5.382693,882.679
15.200754643,-247.9983,-21.64027,12.90745,-0.02687312,0.1951323,-0.1925082,-6.354465,35.28663,5.382693,882.679
15.220577240,-204.6546,104.8444,10.46006,0.09931999,1.079463,1.498788,-8.717505,29.86463,10.63152,882.6775
15.240399361,249.5833,1930.124,-785.1232,13.55451,0.1153102,0.3282765,-8.717505,29.86463,10.63152,882.6775
15.260218144,-382.2645,1930.124,-260.343,3.388279,-4.807568,-15.71239,-23.4947,23.98249,46.38948,882.6741
15.280041218,-43.79684,900.9261,52.67743,-5.674775,1.939069,-9.057737,-23.4947,23.98249,46.38948,882.6741
15.299863815,67.48956,64.66623,26.67398,0.5742308,-1.774406,-0.1760804,-23.4947,23.98249,46.38948,882.6741
15.319685936,252.012,-39.37287,-2.327516,0.1849404,0.8215193,-0.2085049,-4.634592,23.60255,9.792019,882.6741
15.339508534,-133.9718,27.49258,24.2266,-1.454472,0.4875649,-0.1280005,-4.634592,23.60255,9.792019,882.6741
15.361808777,228.2228,19.65724,1.771852,0.2315854,-0.8682101,-1.598755,33.13313,24.23766,-11.13323,882.6758
15.381631374,-5.621925,-71.71571,15.59957,0.4649506,-0.07193618,-0.9626309,33.13313,24.23766,-11.13323,882.6758
15.401453972,-52.63997,24.84153,27.22464,-0.1414169,-0.6935582,-2.988582,33.13313,24.23766,-11.13323,882.6775
15.421276093,-277.8284,-74.48459,23.12528,-0.6145082,-0.7309523,-0.08983775,22.37555,30.22972,-10.59343,882.6775
15.441098690,160.7161,81.69188,-15.72694,-0.3328379,0.09766446,-1.533087,22.37555,30.22972,-10.59343,882.6794
15.460916996,61.32429,35.56356,-5.080822,0.2684205,-0.2192372,-1.213061,22.15978,31.39999,-4.758058,882.6794
15.480740070,51.23565,7.815876,-3.245285,-0.3032122,0.05832993,-1.740494,22.15978,31.39999,-4.758058,882.6795
15.500562668,-94.30231,21.60135,43.98922,-0.1492313,-1.253211,-1.033175,22.15978,31.39999,-4.758058,882.6795
15.520385265,106.0381,136.716,-0.9814546,-0.7986143,0.09918527,-1.332801,31.57147,28.44286,-25.87058,882.6812
15.540207386,-25.92376,-70.53747,15.84431,-0.3129229,-0.7206935,0.8753426,31.57147,28.44286,-25.87058,882.6812
15.560029983,8.950553,-23.58437,-10.89336,-1.123509,0.5755697,-0.8557151,7.280972,17.75678,-1.730359,882.683
15.579852581,-114.9778,154.5075,-4.346607,0.003081711,0.5273085,-1.11402,7.280972,17.75678,-1.730359,882.683
15.599674702,-143.8114,-31.47862,-1.287378,0.6378687,-0.2995816,-1.013724,7.280972,17.75678,-1.730359,882.6815
15.619497299,124.0358,-28.70974,-7.344653,-0.1838819,-0.1933238,-0.8485619,25.07771,26.92821,-9.34218,882.6815
15.641797542,45.81768,8.16935,2.444883,0.1348827,0.0009677112,-1.350253,25.07771,26.92821,-9.34218,882.6833
15.661616325,-66.46513,64.19493,-9.241376,0.6105693,0.2074771,-0.6335868,13.50305,23.54568,-2.330143,882.6833
15.681438446,1362.821,755.4717,-107.6262,-0.3656276,-4.349069,-14.45688,13.50305,23.54568,-2.330143,882.6817
15.701261997,-174.3264,1930.124,-156.5739,6.624295,-3.603154,-15.71208,3.46438,11.09639,42.72875,882.6817
15.721084118,-152.3431,1851.063,33.28192,-4.379347,1.367802,-12.14305,3.46438,11.09639,42.72875,882.6764
15.740906715,369.2146,-245.448,17.67985,2.335617,-1.635422,7.065587,3.46438,11.09639,42.72875,882.6764
15.760729313,115.0058,133.1812,-35.12246,-0.1483782,0.8878174,0.1164405,-7.531069,-4.764371,52.44361,882.6764
15.780551434,412.3093,38.86265,10.64362,-0.606313,1.447711,0.7039496,-7.531069,-4.764371,52.44361,882.6764
15.800374031,887.0981,-44.49823,-17.8684,-0.6870584,4.658195,4.040917,7.224863,16.43544,8.815844,882.6764
15.820196629,-514.7867,354.8092,-9.486115,-2.812978,2.312603,-2.097382,7.224863,16.43544,8.815844,882.6764
15.840018749,-146.0533,-103.1749,25.57266,0.2141216,-0.3169477,1.752733,7.224863,16.43544,8.815844,882.6748
15.859838009,-6.929712,-121.4966,-63.81803,0.9529654,1.057914,2.388477,-3.687803,20.52897,3.104836,882.6748
15.879660606,-95.36099,10.17237,-25.70003,0.5116066,-0.4057351,-1.999394,-3.687803,20.52897,3.104836,882.6765
15.899482727,609.8474,-198.3771,-20.49934,0.09415028,-2.04974,3.133141,-8.741606,28.75595,9.344498,882.6765
15.921783447,-224.3336,26.54998,-7.344653,-2.064868,1.632148,1.434189,-8.741606,28.75595,9.344498,882.6783
15.941605568,-287.917,16.41707,33.71021,-0.9949011,0.2133395,1.370359,-8.741606,28.75595,9.344498,882.6783
15.961428165,418.0386,178.6026,-18.41906,0.6645353,2.134544,2.347166,-10.57084,4.506978,0.165864,882.6768
15.981250763,-339.2321,-243.6807,-20.19342,0.2512092,1.225383,-3.987058,-10.57084,4.506978,0.165864,882.6768
16.001072884,70.35424,67.14054,8.685711,-2.721117,0.1823331,-0.5372917,-5.168472,31.95264,7.100136,882.6786
16.020895481,-139.9503,400.4073,22.45225,3.009591,0.1643929,-0.4298502,-5.168472,31.95264,7.100136,882.6786
16.040718079,-477.4215,-19.69616,39.15564,1.039724,0.3731064,0.7512221,-5.168472,31.95264,7.100136,882.677
16.060536861,-59.73938,-100.9951,3.056729,0.5755088,0.3446045,2.106546,-5.591301,34.86156,6.246908,882.677
16.080359459,252.1366,242.7581,56.89917,1.517162,-0.5704693,3.239081,-5.591301,34.86156,6.246908,882.6787
16.100182056,-172.6449,40.45328,-3.551208,0.6907977,-0.1267333,0.4073885,-9.847212,31.33241,10.19159,882.6787
16.120004654,145.3963,363.6461,43.43856,1.310159,-2.34862,-2.261653,-9.847212,31.33241,10.19159,882.6772
16.139826775,-866.6436,1930.124,-644.0927,10.30041,9.19811,-15.55528,-9.847212,31.33241,10.19159,882.6772
16.159649372,-676.89,1930.124,-54.8239,-4.075547,-4.737082,-15.69517,-19.78504,22.42028,47.15391,882.6736
16.179471970,-230.0007,-135.7534,-18.17433,-1.736369,-1.648739,-1.563811,-19.78504,22.42028,47.15391,882.6736
16.201772213,145.8945,-1.786827,-2.449885,0.5020368,0.2736267,0.4211156,7.269138,27.13036,14.53742,882.6736
16.221594811,53.35302,84.28402,12.2956,-1.162889,-0.06893114,-2.131144,7.269138,27.13036,14.53742,882.6736
16.241416931,40.77336,22.42612,2.077775,-0.3522939,0.5290635,-0.3589797,7.269138,27.13036,14.53742,882.6772
16.261235714,14.49308,32.26447,-15.29865,0.2219188,-0.3074372,-2.147682,33.86707,24.22671,-11.14746,882.6772
16.281058788,-156.7647,10.29019,8.440972,0.03848814,0.04168749,-0.3511201,33.86707,24.22671,-11.14746,882.6759
16.300880909,70.41652,62.25082,-15.78813,-0.5744905,0.4179561,-0.7894166,23.4928,29.85448,-10.17287,882.6759
16.320703507,-35.76329,-3.67202,16.94563,0.9760848,-1.320778,-0.2978168,23.4928,29.85448,-10.17287,882.6776
16.340526104,53.9135,-21.58135,1.710668,0.1667342,-0.06453319,-1.630925,23.4928,29.85448,-10.17287,882.6776
16.360348225,32.36616,50.46837,0.1810527,-0.7521164,0.5919515,-0.4615104,23.24047,31.00862,-5.643879,882.6761
16.380170822,-95.17416,-42.9076,11.37783,-0.5048867,0.919177,-0.6862884,23.24047,31.00862,-5.643879,882.6761
16.399993420,58.64644,12.88233,-12.91245,-0.06786791,-0.6771582,-0.3707762,31.60602,29.55615,-24.2103,882.6778
16.419815540,25.20447,115.3897,-22.6408,0.4661865,0.5250282,-2.234686,31.60602,29.55615,-24.2103,882.6778
16.439638138,61.69794,-42.73087,-2.021593,0.4057133,0.2721986,-0.8510182,31.60602,29.55615,-24.2103,882.6814
16.459456444,-106.0724,19.59833,7.46202,-0.80231,0.3156663,-1.253843,6.907978,16.29555,-2.506138,882.6814
16.481757164,-92.49632,40.33545,8.257419,-0.5169795,-0.2847105,-1.424804,6.907978,16.29555,-2.506138,882.6849
16.501579285,67.86322,103.9018,11.56139,-0.2431544,-0.8651956,-2.005177,24.71046,28.03161,-8.918964,882.6849
16.521402836,-37.44473,-101.9377,-1.899224,0.1759438,0.5686,-1.381162,24.71046,28.03161,-8.918964,882.6833
16.541224956,-51.64355,83.69489,5.07582,0.2086938,-1.019852,-2.107696,13.87833,22.81184,-2.324353,882.6833
16.561047554,94.26805,9.229771,-7.772944,0.8611348,0.481106,-0.2530655,13.87833,22.81184,-2.324353,882.6833
16.580870151,-548.7269,1930.124,-805.8647,16.07972,-2.924676,-8.865697,13.87833,22.81184,-2.324353,882.6833
16.600692272,-432.8945,1930.124,-190.103,2.702078,-2.432351,-15.7115,3.692732,10.66371,37.62698,882.6798
16.620514870,170.182,710.4039,103.2771,-11.20311,3.608778,-6.469614,3.692732,10.66371,37.62698,882.6798
16.640337467,595.1503,-159.495,-86.02804,-0.5282523,-2.193373,2.229078,-8.931177,-6.542599,54.18399,882.6765
16.660155773,107.6573,24.90044,5.748851,-0.6963778,1.42405,-1.006837,-8.931177,-6.542599,54.18399,882.6765
16.679978371,296.2899,-136.4603,-65.28646,-0.9915944,-1.963934,-0.4539829,-8.931177,-6.542599,54.18399,882.6765
16.699801445,418.9105,90.17525,22.51343,-0.3345296,4.286478,-0.6876687,8.378951,14.97842,10.12669,882.6765
16.719623566,-241.7085,404.8257,23.85949,0.2775868,1.138572,-0.9908059,8.378951,14.97842,10.12669,882.6765
16.739446163,439.3369,-230.013,28.69308,3.328737,-0.2925494,4.891704,-3.353516,21.24109,2.213889,882.6732
16.761746406,-246.1924,-16.5149,-3.551208,-2.391595,0.8859831,-2.561005,-3.353516,21.24109,2.213889,882.6732
16.781569004,-27.04471,-121.6144,-8.140053,0.8840056,0.02503506,-0.1912105,-3.353516,21.24109,2.213889,882.6749
16.801391602,143.528,225.2022,24.65489,0.5917498,-3.776855,-0.8497825,-11.2717,29.54342,11.06105,882.6749
16.821213722,-287.917,-222.8257,-39.46657,0.2940444,0.930096,-2.52556,-11.2717,29.54342,11.06105,882.6784
16.841036320,-95.92147,-140.7609,25.38911,-1.619735,-1.664988,0.01475744,-10.99984,8.877228,-0.3399286,882.6784
16.860854626,490.8387,576.4373,-14.19733,-2.871837,4.326046,1.595207,-10.99984,8.877228,-0.3399286,882.682
16.880677223,-152.2186,-12.6856,-20.37697,1.153309,-0.6538739,-0.6997145,-10.99984,8.877228,-0.3399286,882.682
16.900499821,181.2047,-197.1989,63.20119,0.9924244,0.1689198,5.967719,-5.557804,30.85021,5.882442,882.6804
16.920321941,-149.4162,287.2957,-1.470931,-0.1512215,0.7331713,-6.163884,-5.557804,30.85021,5.882442,882.6804
16.940144539,-317.6847,-14.09949,-7.956499,-2.426779,1.23988,-0.4947044,-5.599337,34.492,5.817901,882.6822
16.959967613,-176.4437,-56.92873,-7.344653,0.3496209,-0.5660565,-0.5772083,-5.599337,34.492,5.817901,882.6822
16.979790211,-166.8533,-38.96048,-55.68048,-2.453026,-0.0933625,1.962827,-5.599337,34.492,5.817901,882.6839
16.999612808,-70.32622,111.5015,13.70285,0.9875255,-0.4057117,1.274976,-9.129614,31.68025,9.735443,882.6839
17.019434929,318.7091,566.7168,34.19969,2.006038,-6.108813,-5.791907,-9.129614,31.68025,9.735443,882.6857
17.041735649,-165.9192,1930.124,-191.3267,5.378417,-1.781974,-15.715,-18.00205,22.79701,45.43115,882.6857
17.061553955,-201.9767,1797.866,-2.143962,-5.311981,1.347827,-11.59114,-18.00205,22.79701,45.43115,882.6789
17.081376553,-70.6376,-69.88943,70.2986,0.5624298,-0.9594784,0.6775327,-18.00205,22.79701,45.43115,882.6789
17.101198673,-115.0401,-93.98456,-7.71176,0.6138297,-1.579958,-1.960497,-6.402811,35.43277,16.774,882.6789
17.121021271,105.789,45.343,-0.7979008,-0.3689046,0.5863383,-1.059545,-6.402811,35.43277,16.774,882.6789
17.140843868,9.760135,-19.81399,-1.776854,0.2776221,0.319797,-1.550844,32.78063,22.05346,-11.46064,882.6823
17.160665989,-69.57891,53.88528,-4.163054,-0.4270838,0.4632696,-1.813115,32.78063,22.05346,-11.46064,882.6823
17.180489063,-5.372823,-8.267178,1.465929,-0.4273261,0.001223916,-1.469151,32.78063,22.05346,-11.46064,882.6823
17.200311661,-126.8724,40.98349,-21.66185,0.3413394,0.5106682,-1.479216,23.49695,29.4903,-10.16641,882.6823
17.220134258,-7.614743,50.70402,-3.061731,0.4775718,-1.0926,-0.9925296,23.49695,29.4903,-10.16641,882.6841
17.239956379,59.5183,14.70861,-2.572254,-0.3709964,-0.364965,-2.083084,22.87738,31.74783,-5.214209,882.6841
17.259775162,19.91105,0.9820505,-6.365699,-0.3305467,1.297934,-0.8908007,22.87738,31.74783,-5.214209,882.6826
17.279597282,-129.488,-18.10553,2.077775,0.6668575,-0.1524394,-0.7619484,22.87738,31.74783,-5.214209,882.6826
17.299419880,49.18056,-142.3515,-2.205146,0.4400115,-0.5596769,-1.255977,30.20363,29.97299,-21.69994,882.6826
17.321720123,-145.6173,62.01517,21.53448,-0.6862782,0.2138174,-1.346024,30.20363,29.97299,-21.69994,882.6826
17.341542721,19.97332,28.49409,0.3646065,-0.1361723,-0.03484535,-0.6724945,6.894464,12.26344,-4.550238,882.6861
17.361365318,-20.81716,55.65265,0.7928987,0.3122463,-0.2100751,-0.9895331,6.894464,12.26344,-4.550238,882.6861
17.381187439,6.459531,-53.62964,-14.01377,0.3962539,0.6267508,-0.6983408,6.894464,12.26344,-4.550238,882.6828
17.401010037,28.00687,105.8459,-10.77099,0.2138519,0.3671062,-0.2137061,24.39466,27.69366,-7.225758,882.6828
17.420832634,-9.109356,79.74777,10.03177,0.8892116,-0.2376603,0.9552684,24.39466,27.69366,-7.225758,882.6845
17.440655708,149.3197,-75.54501,-2.511069,0.005787385,-0.5493653,-1.512609,13.47265,22.0682,-3.983961,882.6845
17.460474014,-7.178814,178.3669,71.27756,0.6403057,-0.6420177,-3.618201,13.47265,22.0682,-3.983961,882.6845
17.480296612,-636.5977,1928.356,-604.6287,8.933455,7.126752,-15.59127,13.47265,22.0682,-3.983961,882.6845
17.500119209,-663.8744,1930.124,-63.08382,-2.313865,-2.831061,-15.6998,5.571238,13.05019,27.02582,882.681
17.519941330,-191.2653,-344.2439,-88.35306,0.2000283,-2.498528,-0.01889222,5.571238,13.05019,27.02582,882.681
17.539763927,826.5663,-156.785,-61.55421,1.615301,1.512579,4.717472,-0.03533363,-10.29514,55.75734,882.6793
17.559586525,149.4442,2.337033,7.951497,-1.517554,-0.05652571,-0.9317175,-0.03533363,-10.29514,55.75734,882.6793
17.579408646,699.0882,-94.57368,-5.998591,0.3133726,1.905324,2.623395,-0.03533363,-10.29514,55.75734,882.6776
17.601709366,70.47879,350.6854,-189.0629,-0.3376154,1.785902,3.189042,12.93619,12.02446,12.20682,882.6776
17.621531486,-213.0618,-191.1309,37.62602,-3.349926,1.538021,1.882534,12.93619,12.02446,12.20682,882.6795
17.641354084,323.5043,-37.31094,-11.87231,0.7406787,1.941936,3.798501,-2.691923,22.35723,0.06411934,882.6795
17.661172390,-12.65906,-56.16287,-91.3511,2.526218,-0.8329406,0.3966511,-2.691923,22.35723,0.06411934,882.6812
17.680994987,-113.5454,-65.17645,2.200145,-0.1835984,-1.66702,0.3892685,-11.96251,28.84139,12.33237,882.6812
17.700817585,548.9419,162.5784,-2.327516,-0.6739727,4.734305,-0.3972996,-11.96251,28.84139,12.33237,882.6812
17.720640659,-239.0929,-120.8486,-35.48957,1.635179,1.36973,0.03220771,-11.96251,28.84139,12.33237,882.6812
17.740462780,91.092,-167.566,13.21337,2.45632,-2.623625,2.292224,-10.67952,14.03634,-0.003018856,882.6797
17.760285377,-300.9949,59.54086,15.78312,-0.2456412,-0.9130945,-4.594885,-10.67952,14.03634,-0.003018856,882.6797
17.780107975,-186.1587,215.3049,9.603479,-1.226496,0.2433831,0.7833122,-4.42782,28.28451,5.906268,882.6814
17.799930096,503.2938,-61.87736,64.7308,1.44409,2.926482,6.644425,-4.42782,28.28451,5.906268,882.6814
17.819752693,-164.4868,173.8896,27.34701,-1.270186,4.414593,0.4919958,-4.42782,28.28451,5.906268,882.6798
17.839575291,-507.7497,63.84146,4.708713,-0.1062966,-1.259892,0.5560961,-5.978497,34.4921,5.389558,882.6798
17.859393597,-77.48791,27.49258,-13.15719,0.8174393,0.7562761,1.211817,-5.978497,34.4921,5.389558,882.6798
17.881694317,-10.85307,-170.8651,-9.853222,2.504522,-0.52788,3.137662,-9.85552,32.06076,10.17869,882.6798
17.901516438,-101.0903,82.45774,9.481111,1.092533,1.072868,3.188821,-9.85552,32.06076,10.17869,882.6798
17.921339035,1091.113,1915.514,-622.8005,8.530402,1.441289,4.038763,-9.85552,32.06076,10.17869,882.6798
17.941161633,-276.396,1930.124,-331.9901,4.162958,-5.797636,-15.71389,-19.56838,24.23952,42.51,882.6781
17.960983753,-52.07948,1285.977,64.60844,-5.25334,1.328467,-10.21356,-19.56838,24.23952,42.51,882.6781
17.980806351,106.1004,-92.09936,45.88594,0.6069884,-1.001708,0.0180386,-15.4093,27.92446,22.12865,882.6763
18.000629425,147.9496,63.25233,11.80613,0.1839723,-0.2752156,-1.0644,-15.4093,27.92446,22.12865,882.6763
18.020452023,11.8775,-19.46051,-10.83218,0.08281531,0.3947994,-1.031321,-15.4093,27.92446,22.12865,882.675
18.040274143,-25.48783,-73.54199,8.930449,0.3284916,-0.7210557,-0.8376193,33.17736,19.43802,-11.4215,882.675
18.060092926,92.64889,-19.63725,-10.40388,-0.4382637,0.5432605,-1.997477,33.17736,19.43802,-11.4215,882.675
18.079915047,-27.23154,56.30068,-11.26047,0.1689796,-0.1246858,-1.248775,24.28402,29.10887,-10.61084,882.6786
18.099737644,-223.4618,-52.92269,16.70089,-0.6755054,1.184821,0.3479075,24.28402,29.10887,-10.61084,882.6786
18.119560242,54.22488,91.05893,-6.426884,-0.2213894,-0.1837118,-0.9686744,24.28402,29.10887,-10.61084,882.6803
18.139382362,80.75426,22.72068,4.219236,-0.6935551,-0.841398,-1.655527,23.57824,31.72227,-6.410409,882.6803
18.161683083,2.722998,7.992612,6.177143,0.2681579,0.04591148,-0.8894225,23.57824,31.72227,-6.410409,882.6821
18.181505203,41.02246,-74.48459,15.4772,0.2903485,-0.7866988,-2.332064,29.57951,31.86249,-17.05232,882.6821
18.201327801,-51.39445,36.32942,18.04696,-0.4162806,-0.3200635,0.1892438,29.57951,31.86249,-17.05232,882.6787
18.221150398,-20.13213,22.72068,7.46202,-0.9999034,0.712458,-1.046631,29.57951,31.86249,-17.05232,882.6787
18.240972519,85.05127,137.8353,-16.09405,-0.1253971,-0.3761645,-0.9401076,7.594961,7.052539,-7.770101,882.6805
18.260791302,-45.6651,-129.273,7.46202,0.3417667,-0.4473301,-1.717893,7.594961,7.052539,-7.770101,882.6805
18.280613422,-130.7958,140.722,-1.776854,0.5050337,0.2106743,-0.9019898,23.30223,27.74176,-4.71487,882.6823
18.300436974,-60.79806,-68.88792,1.527114,-0.3227169,-0.5991134,-0.8418971,23.30223,27.74176,-4.71487,882.6823
18.320259094,54.78535,84.99097,-2.021593,-0.4117782,-0.04825062,-0.9711475,23.30223,27.74176,-4.71487,882.684
18.340081692,136.9268,30.55602,-14.99273,0.2037731,0.3040309,-1.01194,16.3767,21.58335,-5.339756,882.684
18.359904289,160.9029,156.2159,26.73517,1.822936,-2.206105,-3.415998,16.3767,21.58335,-5.339756,882.6808
18.379726410,-598.9833,1930.124,-429.396,14.89965,-0.9699994,-15.65439,8.35511,16.96544,23.10315,882.6808
18.399549008,-346.456,1930.124,5.504113,-5.66177,-2.847106,-15.69206,8.35511,16.96544,23.10315,882.6789
18.419371605,19.16374,-328.8089,21.35092,0.4961922,-2.840125,-1.180256,8.35511,16.96544,23.10315,882.6789
18.441671848,355.8253,150.3836,-58.67853,0.2228142,1.21764,1.579391,5.545397,-10.57015,69.16223,882.6772
18.461490154,589.6701,114.4471,36.5247,0.4566856,2.83159,1.907361,5.545397,-10.57015,69.16223,882.6772
18.481312752,714.9062,-45.02845,-27.10728,0.4691361,2.742571,4.477931,17.05434,6.814974,13.02866,882.6755
18.501135349,-637.345,290.5948,-85.04909,1.059731,0.4204959,0.188969,17.05434,6.814974,13.02866,882.6755
18.520957470,-352.6213,-204.9753,32.60889,-0.9101636,-1.332108,1.25473,-1.171185,23.06276,0.02155304,882.6739
18.540780067,368.4673,92.76739,25.14437,0.5169731,-1.727097,3.037254,-1.171185,23.06276,0.02155304,882.6739
18.560602665,87.04409,-13.86384,21.53448,-0.9606579,2.27241,0.2859945,-1.171185,23.06276,0.02155304,882.6756
18.580424786,-60.86034,27.72823,8.991633,-2.663736,-1.194368,-1.22372,-10.83722,28.83571,13.18193,882.6756
18.600247860,266.3976,22.01374,-133.2014,0.7108868,2.174489,0.3755412,-10.83722,28.83571,13.18193,882.6756
18.620070457,-109.1862,201.5784,36.83062,-0.3169571,2.692438,2.001132,-8.544142,19.83033,-0.1489921,882.6756
18.639893055,363.7966,32.20556,2.383698,2.026559,0.42419,6.303816,-8.544142,19.83033,-0.1489921,882.6756
18.659711361,-50.39804,-90.86221,-7.161098,-1.124628,2.690065,3.090512,-8.544142,19.83033,-0.1489921,882.6756
18.679533958,-43.79684,77.68584,-10.09796,-0.6186725,-2.568359,-2.259527,-5.470861,24.30036,6.434078,882.6741
18.699356079,259.5473,-6.146336,11.80613,0.05398007,-0.8835269,3.504016,-5.470861,24.30036,6.434078,882.6741
18.721656799,-451.8885,44.57714,0.4257911,-0.005775073,1.875913,-0.1882607,-6.731884,35.2875,5.016557,882.6758
18.741478920,-397.6465,-29.29886,-20.80526,-0.09909333,-2.044821,-0.1059673,-6.731884,35.2875,5.016557,882.6758
18.761301517,-121.579,-158.9059,-0.7979008,0.3533497,-0.6770687,1.702235,-6.731884,35.2875,5.016557,882.6758
18.781124115,-136.8365,-43.90911,42.52079,0.4910334,0.07296405,1.633698,-9.111403,33.15233,10.9538,882.6758
18.800946712,-180.6785,87.58311,6.911358,-0.4770886,1.279341,1.599187,-9.111403,33.15233,10.9538,882.6761
18.820768833,-17.95248,1930.124,-880.5712,15.2022,-1.648863,-0.8980461,-20.1855,22.2435,32.84591,882.6761
18.840591431,-396.401,1930.124,-249.0238,1.738251,-4.601402,-15.70864,-20.1855,22.2435,32.84591,882.6761
18.860409737,-21.87584,895.1528,66.07687,-7.697886,1.927212,-9.994996,-20.1855,22.2435,32.84591,882.6761
18.880232334,187.4946,84.51967,25.26674,-0.05132611,-2.120794,-0.9440773,-12.89433,16.2285,26.52255,882.6761
18.900054932,252.1366,-25.70522,6.911358,0.2070199,0.9206526,0.1816939,-12.89433,16.2285,26.52255,882.6761
18.919877052,-74.1873,7.16784,15.17128,-1.101263,0.1295262,-0.8096642,35.0595,18.33346,-10.19356,882.6778
18.939700127,146.1436,-31.12514,7.951497,0.1410647,-0.4281408,-1.061862,35.0595,18.33346,-10.19356,882.6778
18.959522724,30.62244,-16.5149,10.58243,0.1841742,-0.1013306,-1.621377,35.0595,18.33346,-10.19356,882.6745
18.979345322,-95.73464,36.38833,19.08709,0.1427852,-0.4728764,-1.059937,23.84571,28.01274,-11.39189,882.6745
19.001645565,-144.9323,-162.6174,13.02982,-0.4385305,-0.4536044,-0.2708594,23.84571,28.01274,-11.39189,882.6762
19.021468163,149.3819,133.9471,-12.54534,-0.140917,0.3466873,-1.11555,23.90423,33.16274,-7.314266,882.6762
19.041290283,-5.871027,40.68893,-7.283468,-0.2211249,-0.5356571,-1.675384,23.90423,33.16274,-7.314266,882.678
19.061109066,72.03568,33.56054,-6.120961,-0.2039364,0.763103,-0.8985983,23.90423,33.16274,-7.314266,882.678
19.080931187,-111.9886,-74.77915,44.66225,-0.07415739,-1.361636,-1.459511,27.48576,33.77314,-12.43844,882.6797
19.100753784,113.1375,107.7311,-5.264376,-0.6917188,0.125822,-0.2761908,27.48576,33.77314,-12.43844,882.6797
19.120576382,-52.57769,-46.2656,11.80613,-0.5836311,-0.1282449,-0.1547331,18.52476,4.629157,-13.85592,882.6797
19.140731812,93.27164,8.051525,-26.86254,-0.2896593,0.6159127,-0.3189248,18.52476,4.629157,-13.85592,882.6797
19.160554409,-91.74901,78.51061,1.037637,-0.1848946,-0.3742803,-1.823964,18.52476,4.629157,-13.85592,882.6764
19.180377007,-126.6233,1.394437,3.362652,-0.504747,0.5564835,0.03260093,19.71047,27.09894,-2.142436,882.6764
19.200200081,83.24528,31.4397,-1.776854,-0.3354611,-0.6897997,-1.710511,19.71047,27.09894,-2.142436,882.6764
19.220022678,46.44043,17.24184,2.13896,0.3804036,-0.05241495,-0.07222249,21.44784,22.27034,-7.506278,882.6764
19.239844799,2.41162,-6.499809,-3.734761,0.5012681,-0.2642852,-0.7830822,21.44784,22.27034,-7.506278,882.6782
19.259663582,363.9211,216.0119,7.339651,2.318754,-3.041093,-3.990105,21.44784,22.27034,-7.506278,882.6782
19.281963825,-165.1719,1929.947,-197.0781,11.24165,-2.078216,-15.73134,9.874405,20.82488,13.35422,882.6782
19.301786423,-121.3922,1930.124,40.68525,-4.597653,2.956094,-13.81857,9.874405,20.82488,13.35422,882.6782
19.321608543,347.7295,-355.0838,24.59371,2.198271,-1.500297,7.058202,8.978576,-7.633773,74.89416,882.6714
19.341431141,293.7989,107.142,-45.46266,-0.3358285,1.757957,2.149899,8.978576,-7.633773,74.89416,882.6714
19.361253738,230.091,-189.0101,-20.98882,1.247327,-3.074851,0.1062365,8.978576,-7.633773,74.89416,882.6714
19.381075859,488.6591,-90.33199,-9.669668,-0.1762813,-1.236359,-0.630867,21.64699,0.6104422,17.28316,882.6714
19.400898457,-276.0847,358.344,-90.61689,-0.8737895,1.740279,-0.5846353,21.64699,0.6104422,17.28316,882.6731
19.420721054,-298.2547,-268.4238,-10.15914,0.6031496,-1.118551,-0.4761118,-0.4476891,23.04719,-0.3659344,882.6731
19.440543175,18.91464,-35.13118,-58.92327,0.6586361,0.8776264,3.853115,-0.4476891,23.04719,-0.3659344,882.6731
19.460361957,70.41652,-114.3682,8.685711,1.3375,0.8696304,1.568777,-0.4476891,23.04719,-0.3659344,882.6731
19.480184078,96.19859,-75.54501,24.2266,-1.775663,0.8955877,2.083563,-8.58008,28.09523,14.83177,882.6731
19.500006676,416.7931,295.0133,-77.03391,-0.5650522,3.632992,1.143774,-8.58008,28.09523,14.83177,882.6748
19.519829273,-51.2699,177.1298,36.15759,0.1932805,0.7501631,1.27312,-6.007393,24.597,0.5249162,882.6748
19.539651394,443.6961,-129.2141,66.01568,2.182137,0.8041331,6.082586,-6.007393,24.597,0.5249162,882.6748
19.561952114,-126.4988,-44.43932,39.76749,-3.092067,4.476403,1.34187,-3.232563,18.00037,5.257992,882.6748
19.581774235,132.8789,-146.8878,11.80613,-3.075644,-1.366428,-0.9488046,-3.232563,18.00037,5.257992,882.6716
19.601596832,211.9689,28.49409,-8.690715,0.9780452,-1.446614,5.02581,-3.232563,18.00037,5.257992,882.6716
19.621419430,-352.4345,-35.54357,8.01268,-1.316955,1.996097,0.858669,-7.087715,35.2369,5.398004,882.6716
19.641241550,-265.0619,27.55149,2.13896,1.433602,-0.09632313,4.510056,-7.087715,35.2369,5.398004,882.6716
19.661060810,-160.1275,-79.55105,-0.3696086,0.006513531,-1.225012,0.2608415,-9.494986,34.61453,10.9351,882.6716
19.680883408,-262.5086,-24.93936,3.729759,-0.2402509,-0.1715331,0.4679746,-9.494986,34.61453,10.9351,882.6716
19.700706005,-220.5348,105.6692,36.03522,0.5983827,0.3680572,2.964621,-9.494986,34.61453,10.9351,882.6716
19.720528126,-175.136,1930.124,-884.7317,13.40416,-1.439627,-5.201865,-16.72981,19.16613,23.99273,882.6716
19.740350723,-405.1196,1930.124,-197.5676,1.750203,-5.466978,-15.70842,-16.72981,19.16613,23.99273,882.6698
19.760173321,-2.881801,642.8314,88.5928,-10.02705,3.26503,-8.919733,-7.006868,19.80799,28.39701,882.6698
19.779995441,184.7544,44.34149,15.59957,0.6051136,-1.227331,-0.7854343,-7.006868,19.80799,28.39701,882.663
19.799818039,106.4118,42.10282,6.360697,-0.5432343,0.7020274,1.030133,-7.006868,19.80799,28.39701,882.663
19.819640636,68.73508,-91.03894,-6.793991,0.06740218,0.3579972,-0.5212783,38.18741,19.07857,-5.287899,882.663
19.841940880,37.59731,-10.21128,1.649483,-0.2968465,-0.3819738,-1.329989,38.18741,19.07857,-5.287899,882.663
19.861759186,-37.44473,18.30226,22.14632,-0.215948,0.2098744,-0.1585548,25.00806,26.89747,-11.83053,882.6647
19.881581783,105.4154,43.28107,5.19819,-0.1989654,-0.7453362,-3.639697,25.00806,26.89747,-11.83053,882.6647
19.901404381,-226.0151,-116.2534,32.11941,-0.302425,-0.7088546,0.4361915,25.00806,26.89747,-11.83053,882.6614
19.921226501,87.10636,49.87925,-6.488068,-0.3672607,-0.07864077,-1.821235,23.12355,32.05503,-9.395763,882.6614
19.941049099,65.55902,77.09672,-21.29474,0.3180676,0.02158217,-1.150994,23.12355,32.05503,-9.395763,882.6614
19.960871696,-50.21122,-52.80487,6.850174,-0.3825314,1.002696,-0.9863679,23.88574,32.78857,-8.116525,882.6614
19.980693817,-25.36328,56.77198,16.76208,0.4681861,-2.077032,-2.425476,23.88574,32.78857,-8.116525,882.6649
20.000516415,83.80576,36.91854,-0.614347,-0.7109231,-0.2192744,-0.6466904,23.88574,32.78857,-8.116525,882.6649
20.020339012,-60.48668,-35.54357,0.3034219,-1.228634,0.4500936,-0.203215,33.71056,12.01819,-21.44667,882.6653
20.040161133,-28.85071,58.775,-11.62757,0.1248828,0.07113218,-0.7262833,33.71056,12.01819,-21.44667,882.6653
20.059979916,-38.25431,7.285665,-1.960408,-0.3696306,-0.02131841,-1.256659,16.10023,26.08194,-0.3722606,882.6672
20.079802990,-68.8316,4.281138,9.358742,-0.3478613,0.7220708,-0.2517797,16.10023,26.08194,-0.3722606,882.6672
20.099625111,98.68961,1.276612,-7.772944,-0.1745285,0.275993,-1.034523,16.10023,26.08194,-0.3722606,882.6689
20.121924877,-58.80524,119.6314,17.55748,0.05143536,-0.6159176,-0.1301984,24.72105,25.10818,-9.676044,882.6689
20.141747475,107.9687,-63.29126,4.219236,0.2601819,-0.03118378,-0.7007068,24.72105,25.10818,-9.676044,882.6673
20.161570072,661.4738,423.6777,34.26087,1.826824,-6.60715,-13.98768,11.13279,22.60155,6.573864,882.6673
20.181393147,-233.239,1930.006,-213.0473,10.8165,-1.864816,-15.73042,11.13279,22.60155,6.573864,882.6656
20.201215744,-139.6389,1930.124,34.87272,-4.147088,2.865912,-13.32827,11.13279,22.60155,6.573864,882.6656
20.221037865,384.7212,-268.3649,88.83753,3.743081,-2.045338,6.295306,6.834728,-4.448669,65.1671,882.662
20.240860462,338.0145,67.55293,-27.10728,-0.3928417,1.376798,1.746455,6.834728,-4.448669,65.1671,882.662
20.260678768,401.847,-122.3214,-53.60021,-2.670795,0.6490684,2.721642,18.53193,-4.442575,22.0421,882.662
20.280501366,466.1153,-65.58884,-29.12637,-0.1504972,1.322655,1.614222,18.53193,-4.442575,22.0421,882.662
20.300323963,-479.2898,327.8274,-49.2561,-0.4891086,2.307752,-1.069349,18.53193,-4.442575,22.0421,882.6605
20.320146084,-358.5997,-38.13571,24.34897,-0.8944938,-1.821565,-2.095335,1.435139,21.88193,0.8630877,882.6605
20.339968681,282.527,68.849,67.5453,2.054839,-2.745606,3.907936,1.435139,21.88193,0.8630877,882.6622
20.359791279,-146.4269,-109.4785,-54.39561,-0.4187621,1.712744,-0.800212,-7.142319,25.49792,12.73338,882.6622
20.379613400,37.22365,-31.30188,12.96863,-2.870223,-4.100293,-1.569572,-7.142319,25.49792,12.73338,882.6641
20.401914120,-417.5124,66.31577,15.96668,-1.162663,1.887272,0.4541785,-2.707211,27.84067,1.646942,882.6641
20.421736240,-330.2021,-69.12357,-23.98686,-1.082735,1.206468,0.5844458,-2.707211,27.84067,1.646942,882.6625
20.441558838,365.1667,151.9153,-10.03678,-0.416256,-0.8400275,0.8176731,-2.707211,27.84067,1.646942,882.6625
20.461377144,-241.6462,-216.3454,-11.38284,0.4842101,1.598175,2.271121,-3.164608,8.819044,4.114039,882.6625
20.481199741,-18.82434,31.85209,7.033728,-0.6823312,2.461851,2.57573,-3.164608,8.819044,4.114039,882.6625
20.501022339,-203.845,86.28703,-51.6423,1.19568,1.378551,-0.1027785,-7.447613,36.77055,6.249151,882.6642
20.520844459,-437.0047,-52.56922,23.12528,-1.546449,-0.4702604,-3.588299,-7.447613,36.77055,6.249151,882.6642
20.540667057,-435.261,155.9803,23.98186,-1.735192,-0.812701,-1.719692,-7.447613,36.77055,6.249151,882.6642
20.560489654,40.3997,-195.4315,-13.76904,0.7124685,0.8129327,4.32709,-8.446199,36.10013,9.642681,882.6642
20.580311775,-229.2534,135.8912,20.2496,-0.05691234,0.982264,1.887061,-8.446199,36.10013,9.642681,882.6642
20.600134373,-160.0653,138.7779,-3.367654,0.7089321,1.239805,3.196841,-9.169889,22.67962,17.86662,882.6642
20.619956970,-198.427,1930.124,-878.3685,15.60281,-2.132946,-3.516331,-9.169889,22.67962,17.86662,882.6609
20.639779091,-392.789,1930.124,-224.7335,2.315531,-4.778686,-15.70992,-9.169889,22.67962,17.86662,882.6609
20.659597874,13.99487,796.0623,83.26974,-9.523727,2.433153,-9.561859,-17.27933,21.62206,44.56643,882.6556
20.681898117,209.2287,-9.445423,-7.650576,0.07926474,-1.081637,0.2228008,-17.27933,21.62206,44.56643,882.6556
20.701720714,95.70039,41.86717,20.80026,-0.008521147,-0.2974269,-0.5778963,26.14099,25.96461,1.984927,882.6591
20.721542835,65.99496,-39.0783,14.74299,-0.9044994,0.4599246,-0.7106107,26.14099,25.96461,1.984927,882.6591
20.741365433,-30.46987,-31.83209,11.13309,0.3207548,-0.6918624,-0.1001506,26.14099,25.96461,1.984927,882.6609
20.761188030,62.94345,14.1784,-3.551208,-0.2883845,0.6429902,-1.10955,26.49256,25.41883,-11.83318,882.6609
20.781010151,48.5578,26.49107,16.33379,0.3057637,-0.9623756,-2.869819,26.49256,25.41883,-11.83318,882.6594
20.800833702,-257.6511,-128.3304,26.55161,-0.810669,-0.5387082,-0.592733,23.10506,31.68086,-10.19802,882.6594
20.820655823,54.9099,123.6963,-8.690715,-0.4638668,0.08293262,-1.419288,23.10506,31.68086,-10.19802,882.6594
20.840478420,89.84649,54.71005,-2.878177,-0.3938716,0.3984546,-1.628329,23.10506,31.68086,-10.19802,882.6611
20.860296726,-169.4066,34.62096,14.06995,-0.2720196,0.5324367,-1.000852,21.78035,32.498,-4.770303,882.6611
20.880119324,87.66685,30.08472,3.485021,-0.03734629,-1.927868,-3.133558,21.78035,32.498,-4.770303,882.6647
20.899941921,57.4632,72.61938,2.567252,-0.7033868,0.29281,0.02116535,37.54236,21.78291,-27.17586,882.6647
20.919764042,-35.07826,-7.442406,7.829127,-0.9981259,0.6104766,-0.7037344,37.54236,21.78291,-27.17586,882.6648
20.939586639,-44.85552,52.64812,-3.551208,-0.1361949,-0.6175007,-0.1192293,37.54236,21.78291,-27.17586,882.6648
20.961886883,-65.34418,-16.69164,3.423836,-0.629956,0.4041849,-0.9875364,12.83433,25.04948,0.5820842,882.6666
20.981709480,-48.65433,28.19953,-6.855175,0.690173,0.1464404,-1.086285,12.83433,25.04948,0.5820842,882.6666
21.001532078,-63.84956,-4.261143,2.444883,-0.5591291,-0.1120192,-1.904584,25.75834,26.52771,-11.40285,882.665
21.021354198,32.30388,154.3307,1.894222,0.3308634,-0.6452109,-0.1902151,25.75834,26.52771,-11.40285,882.665
21.041176796,106.4741,-47.44385,-13.95259,0.6644451,0.2647409,-0.7050796,25.75834,26.52771,-11.40285,882.6667
21.060995102,471.6579,328.8289,42.21487,1.466046,-6.521185,-12.65657,12.55147,22.89601,2.743022,882.6667
21.080817699,-278.0152,1929.947,-220.2059,10.9171,-0.9141346,-15.73093,12.55147,22.89601,2.743022,882.6686
21.100640297,-101.9622,1930.124,27.71412,-4.832243,2.568939,-13.19634,5.910967,-0.06835127,60.12612,882.6686
21.120462418,276.2995,-276.377,87.24673,2.757168,-1.032972,5.257182,5.910967,-0.06835127,60.12612,882.66
21.140285015,349.0373,116.2145,-55.49693,-0.09898794,2.599931,3.230872,5.910967,-0.06835127,60.12612,882.66
21.160107613,417.0422,-227.7744,-5.998591,2.702753,-4.099371,2.745577,9.323449,-12.90961,32.89652,882.6617
21.179929733,431.7392,-100.9362,-14.01377,-0.1038722,0.09756775,0.220484,9.323449,-12.90961,32.89652,882.6617
21.199752331,-278.202,372.0116,-82.11223,0.6887037,1.322543,-0.1432526,2.283867,20.09158,4.240391,882.6634
21.219574928,-261.5744,-268.306,42.70435,-0.9884654,0.02771652,1.185076,2.283867,20.09158,4.240391,882.6634
21.241875172,254.6899,-19.75507,-88.23069,2.13009,-0.6685409,3.666761,2.283867,20.09158,4.240391,882.6602
21.261693478,-89.56937,-39.37287,-54.88509,1.532199,1.721196,-0.5332024,-6.500116,23.25039,8.589888,882.6602
21.281516075,35.23083,-100.2882,2.322514,-3.398407,-4.109809,-2.356568,-6.500116,23.25039,8.589888,882.6619
21.301338673,54.4117,85.58009,-40.69026,-1.853462,1.117521,1.991256,-1.91407,27.85585,3.747801,882.6619
21.321160793,-266.1205,-98.75645,26.67398,0.5752753,0.01790687,-0.5237885,-1.91407,27.85585,3.747801,882.6586
21.340983391,231.7725,-57.69459,-4.285423,1.392667,-1.256477,1.897777,-1.91407,27.85585,3.747801,882.6586
21.360805988,23.3362,-6.087423,29.85558,-0.4388187,0.7967329,0.2047713,-3.107519,-1.40411,2.179659,882.6621
21.380628109,-47.4711,77.33237,18.90354,0.1687133,1.329037,1.880692,-3.107519,-1.40411,2.179659,882.6621
21.400450707,522.0388,67.96532,9.419926,0.0009037689,6.809638,1.345055,-6.697332,36.40079,6.676831,882.6621
21.420273304,-594.1258,-155.0766,-1.899224,-3.118082,2.481934,-0.6486252,-6.697332,36.40079,6.676831,882.6621
21.440095902,-291.4667,20.8944,7.584389,0.275166,-2.510637,-0.03917478,-6.697332,36.40079,6.676831,882.6656
21.459914207,-75.43282,-104.8833,-21.78422,0.4297588,1.889881,3.861488,-6.32822,37.12828,7.030056,882.6656
21.479736805,-191.639,-88.27007,18.04696,-0.1630234,-0.3199722,1.011357,-6.32822,37.12828,7.030056,882.6644
21.499558926,-189.2102,145.6117,10.3377,1.05677,0.6088792,1.74812,-8.989908,27.71578,13.16571,882.6644
21.521859646,-691.338,1930.124,-852.6098,16.0531,-4.444558,-15.74176,-8.989908,27.71578,13.16571,882.6644
21.541681766,-572.3917,1930.124,-128.6125,0.5149591,-3.236481,-15.70622,-25.3321,27.30288,47.61116,882.6644
21.561504364,-56.8747,191.5633,15.78312,-8.591743,4.261014,-6.785666,-25.3321,27.30288,47.61116,882.6591
21.581326961,212.4671,122.577,20.80026,0.1075471,-1.467028,-0.8091158,-25.3321,27.30288,47.61116,882.6591
21.601149082,164.2035,-37.42876,7.645574,0.1626193,0.6664397,0.4639252,9.323494,29.59447,10.21935,882.6558
21.620971680,-132.0413,32.32338,3.179098,-1.460537,0.5976565,-0.7280425,9.323494,29.59447,10.21935,882.6558
21.640794277,140.5388,-30.18255,-8.017684,0.3213791,-0.7626976,-1.512318,28.69077,23.5543,-12.71454,882.6575
21.660612583,-20.87944,-64.64624,20.43316,0.168633,-0.3112021,-1.220945,28.69077,23.5543,-12.71454,882.6575
21.680435181,-12.28541,98.48188,22.51343,-0.09438948,-0.6686917,-2.795713,28.69077,23.5543,-12.71454,882.6592
21.700257301,-280.9421,-62.87887,25.75621,-0.996685,-0.2027571,0.3849714,22.02492,29.8764,-10.1444,882.6592
21.720079899,146.8286,69.67377,-17.01182,-0.09656435,0.01836403,-2.018704,22.02492,29.8764,-10.1444,882.6594
21.739902496,21.28111,78.86409,-4.774899,-0.2202654,-0.2977637,-1.352697,22.53064,32.12825,-4.342623,882.6594
21.759724617,-36.19922,6.873279,1.098822,-0.1361839,-0.08395708,-0.628903,22.53064,32.12825,-4.342623,882.6613
21.779547214,16.67272,-53.98311,11.74494,0.714102,-1.286822,-2.424839,22.53064,32.12825,-4.342623,882.6613
21.801847458,30.18651,65.54991,-0.4307932,-0.6659552,-0.5331215,-1.315204,34.12862,26.20329,-27.18806,882.6597
21.821670055,-110.3071,42.39738,-3.551208,-0.6153495,-0.429518,-0.2326273,34.12862,26.20329,-27.18806,882.6597
21.841492653,50.92427,29.31886,-9.669668,-0.2395575,-0.2077888,-1.186511,9.855247,21.38097,-0.165091,882.6614
21.861310959,-36.7597,5.223735,8.624526,-0.642699,0.5877009,-0.6911405,9.855247,21.38097,-0.165091,882.6614
21.881133556,-92.12267,38.92156,2.873175,-0.4158951,0.0555585,-0.9965485,9.855247,21.38097,-0.165091,882.6631
21.900955677,-33.21,-15.04209,2.750806,0.04792421,0.0198601,-1.328508,25.04288,26.91284,-10.58635,882.6631
21.920778275,7.206837,91.41241,-13.21837,0.1728242,0.254647,-1.062614,25.04288,26.91284,-10.58635,882.6616
21.940600872,52.23206,-41.14024,-5.631484,0.0473023,-0.1766783,-1.365801,13.55635,23.93522,-0.2837105,882.6616
21.960422993,345.9858,302.2006,25.022,2.880981,-3.973307,-4.456114,13.55635,23.93522,-0.2837105,882.6616
21.980245590,-349.8189,1930.124,-247.0659,13.253,-0.9258994,-15.73632,13.55635,23.93522,-0.2837105,882.6616
22.000068188,-119.8976,1930.124,37.56484,-5.136264,0.2913246,-15.1727,2.600298,6.764223,49.48496,882.6545
22.019891262,78.69917,-496.2376,39.40038,2.055798,-3.581247,1.564591,2.600298,6.764223,49.48496,882.6545
22.039713860,397.4877,17.83096,-40.01723,0.1209618,2.797225,3.013857,-6.169123,-5.931092,48.20431,882.6547
22.062009335,503.5429,-186.3001,3.974498,1.745615,-1.592578,2.648885,-6.169123,-5.931092,48.20431,882.6547
22.081831932,676.7936,-85.73683,-6.732807,-0.1151662,0.7352156,-0.08328016,-6.169123,-5.931092,48.20431,882.6566
